time (s)	coil I (A)	last det (V)	int current (uC)
1963.118314	1.073848	0.851390	491.822235
1963.119250	0.543596	0.851390	1000.628296
1963.120153	0.093281	0.851390	1084.861206
1963.121041	0.091659	0.851390	1166.254395
1963.121997	0.091589	0.851390	1253.813843
1963.122901	0.091527	0.851390	1336.554321
1963.123819	0.091556	0.851390	1420.603149
1963.124717	0.091707	0.851390	1502.955566
1963.125683	0.091608	0.851390	1591.448608
1963.126584	0.091652	0.851390	1674.026733
1963.127478	0.091578	0.851390	1755.897827
1963.128409	0.091597	0.851390	1841.174316
1964.134999	1.052955	0.944895	467.512146
1964.135909	0.605215	0.944895	1018.257629
1964.136802	0.093944	0.944895	1102.149658
1964.137729	0.091509	0.944895	1186.978271
1964.138644	0.091556	0.944895	1270.752441
1964.139548	0.091542	0.944895	1353.506226
1964.140435	0.091571	0.944895	1434.729736
1964.141385	0.091688	0.944895	1521.833496
1964.142299	0.091567	0.944895	1605.526123
1964.143187	0.091578	0.944895	1686.847656
1964.144112	0.091553	0.944895	1771.533936
1964.145018	0.091611	0.944895	1854.533813
1965.214043	1.046741	0.848066	460.565887
1965.215035	0.518251	0.848066	974.670654
1965.215936	0.092714	0.848066	1058.205566
1965.216853	0.091538	0.848066	1142.145996
1965.217748	0.091567	0.848066	1224.098755
1965.218701	0.091648	0.848066	1311.439209
1965.219601	0.091604	0.848066	1393.882812
1965.220488	0.091659	0.848066	1475.184326
1965.221438	0.091589	0.848066	1562.194214
1965.222351	0.091582	0.848066	1645.808594
1965.223251	0.091644	0.848066	1728.288452
1965.224139	0.091666	0.848066	1809.688110
1966.228831	1.056628	0.950104	480.765961
1966.229730	0.603431	0.950104	1023.250732
1966.230694	0.093658	0.950104	1113.537476
1966.231593	0.091593	0.950104	1195.879639
1966.232485	0.091611	0.950104	1277.596924
1966.233372	0.091589	0.950104	1358.836670
1966.234305	0.091644	0.950104	1444.340820
1966.235213	0.091571	0.950104	1527.487305
1966.236107	0.091586	0.950104	1609.364868
1966.237026	0.091567	0.950104	1693.515259
1966.237937	0.091655	0.950104	1777.013184
1966.238845	0.091593	0.950104	1860.179687
1967.308278	1.080029	0.841995	513.013977
1967.309196	0.540981	0.841995	1009.635010
1967.310122	0.092944	0.841995	1095.701416
1967.311007	0.091600	0.841995	1176.767700
1967.311952	0.091597	0.841995	1263.326538
1967.312857	0.091564	0.841995	1346.191650
1967.313751	0.091615	0.841995	1428.095459
1967.314687	0.091648	0.841995	1513.877930
1967.315597	0.091575	0.841995	1597.210937
1967.316517	0.091534	0.841995	1681.422607
1967.317407	0.091586	0.841995	1762.933838
1967.318343	0.091582	0.841995	1848.654663
1968.322511	1.037208	0.935384	456.371674
1968.323415	0.606848	0.935384	1004.962402
1968.324364	0.093164	0.935384	1093.375122
1968.325275	0.091472	0.935384	1176.706299
1968.326170	0.091553	0.935384	1258.645996
1968.327099	0.091567	0.935384	1343.712158
1968.328005	0.091560	0.935384	1426.665527
1968.328907	0.091545	0.935384	1509.239502
1968.329796	0.091545	0.935384	1590.623413
1968.330731	0.091615	0.935384	1676.283447
1968.331646	0.091494	0.935384	1760.000610
1968.332537	0.091531	0.935384	1841.554565
1969.402321	1.038823	0.859692	459.159882
1969.403216	0.611309	0.859692	1006.281006
1969.404168	0.093256	0.859692	1095.060303
1969.405088	0.091520	0.859692	1179.258545
1969.405989	0.091556	0.859692	1261.750854
1969.406917	0.091560	0.859692	1346.718628
1969.407824	0.091553	0.859692	1429.756958
1969.408724	0.091501	0.859692	1512.108276
1969.409611	0.091538	0.859692	1593.302612
1969.410562	0.091582	0.859692	1680.397095
1969.411464	0.091556	0.859692	1762.980957
1969.412365	0.091586	0.859692	1845.499634
1970.416078	1.034348	0.953922	456.147522
1970.417066	0.496512	0.953922	946.701782
1970.417973	0.092736	0.953922	1030.812988
1970.418872	0.091571	0.953922	1113.135376
1970.419763	0.091622	0.953922	1194.770874
1970.420718	0.091597	0.953922	1282.245728
1970.421626	0.091487	0.953922	1365.315796
1970.422518	0.091520	0.953922	1446.951416
1970.423407	0.091578	0.953922	1528.364624
1970.424331	0.091600	0.953922	1613.003296
1970.425233	0.091509	0.953922	1695.544189
1970.426151	0.091556	0.953922	1779.593018
1971.495516	1.050568	0.834052	471.704865
1971.496421	0.590786	0.834052	1006.366333
1971.497380	0.093094	0.834052	1095.643921
1971.498286	0.091516	0.834052	1178.557495
1971.499176	0.091586	0.834052	1260.068726
1971.500119	0.091644	0.834052	1346.489258
1971.501021	0.091644	0.834052	1429.152344
1971.501919	0.091512	0.834052	1511.330566
1971.502803	0.091586	0.834052	1592.292358
1971.503747	0.091648	0.834052	1678.807983
1971.504652	0.091597	0.834052	1761.703003
1971.505544	0.091571	0.834052	1843.384399
1972.509386	1.038889	0.942788	457.111237
1972.510368	0.505675	0.942788	953.684082
1972.511282	0.092834	0.942788	1038.534790
1972.512184	0.091520	0.942788	1121.085571
1972.513112	0.091637	0.942788	1206.124634
1972.514014	0.091641	0.942788	1288.784424
1972.514919	0.091564	0.942788	1371.649658
1972.515812	0.091542	0.942788	1453.396484
1972.516747	0.091615	0.942788	1539.056519
1972.517647	0.091538	0.942788	1621.440796
1972.518543	0.091600	0.942788	1703.514648
1972.519433	0.091556	0.942788	1784.999878
1973.590135	1.086119	0.858890	511.562256
1973.591066	0.530442	0.858890	1005.403687
1973.591975	0.092948	0.858890	1089.893433
1973.592883	0.091611	0.858890	1173.076538
1973.593809	0.091688	0.858890	1257.979858
1973.594716	0.091564	0.858890	1341.028198
1973.595610	0.091644	0.858890	1422.958252
1973.596551	0.091571	0.858890	1509.126587
1973.597459	0.091630	0.858890	1592.326294
1973.598349	0.091641	0.858890	1673.886475
1973.599237	0.091615	0.858890	1755.240601
1973.600171	0.091611	0.858890	1840.805542
1974.602700	1.049572	0.961524	462.861084
1974.603664	0.527355	0.961524	971.231079
1974.604586	0.092904	0.961524	1056.888672
1974.605480	0.091619	0.961524	1138.795776
1974.606412	0.091615	0.961524	1224.180908
1974.607319	0.091674	0.961524	1307.328857
1974.608224	0.091593	0.961524	1390.220581
1974.609145	0.091597	0.961524	1474.581177
1974.610031	0.091615	0.961524	1555.752075
1974.610983	0.091655	0.961524	1643.007935
1974.611885	0.091560	0.961524	1725.595093
1974.612778	0.091619	0.961524	1807.410522
1975.684584	1.077103	0.859877	499.775909
1975.685486	0.581909	0.859877	1024.657959
1975.686427	0.093212	0.859877	1112.370117
1975.687334	0.091600	0.859877	1195.451660
1975.688241	0.091630	0.859877	1278.559692
1975.689133	0.091648	0.859877	1360.309692
1975.690079	0.091597	0.859877	1446.960205
1975.690976	0.091567	0.859877	1529.096191
1975.691872	0.091622	0.859877	1611.189819
1975.692805	0.091582	0.859877	1696.635864
1975.693705	0.091589	0.859877	1779.066284
1975.694600	0.091538	0.859877	1860.992920
1976.697429	1.051267	0.946325	469.916351
1976.698333	0.605186	0.946325	1017.004028
1976.699245	0.094142	0.946325	1102.861450
1976.700170	0.091648	0.946325	1187.635742
1976.701076	0.091571	0.946325	1270.599121
1976.701969	0.091575	0.946325	1352.375366
1976.702909	0.091633	0.946325	1438.510620
1976.703820	0.091699	0.946325	1522.048584
1976.704725	0.091648	0.946325	1604.989990
1976.705619	0.091589	0.946325	1686.870850
1976.706579	0.091729	0.946325	1774.930176
1976.707493	0.091593	0.946325	1858.646240
1977.778140	1.052838	0.876845	474.829987
1977.779040	0.593101	0.876845	1008.620483
1977.780003	0.093190	0.876845	1098.362183
1977.780912	0.091586	0.876845	1181.613525
1977.781802	0.091633	0.876845	1263.167114
1977.782732	0.091608	0.876845	1348.362305
1977.783636	0.091688	0.876845	1431.248413
1977.784538	0.091611	0.876845	1513.881836
1977.785427	0.091589	0.876845	1595.304810
1977.786373	0.091641	0.876845	1681.996826
1977.787276	0.091637	0.876845	1764.744995
1977.788182	0.091586	0.876845	1847.721680
1978.791645	1.053274	0.957677	482.399445
1978.792545	0.592449	0.957677	1015.603271
1978.793489	0.093962	0.957677	1104.303833
1978.794408	0.091505	0.957677	1188.397095
1978.795326	0.091549	0.957677	1272.439087
1978.796214	0.091542	0.957677	1353.728149
1978.797168	0.091582	0.957677	1441.097412
1978.798063	0.091465	0.957677	1522.958496
1978.798983	0.091564	0.957677	1607.197144
1978.799878	0.091531	0.957677	1689.117187
1978.800844	0.091549	0.957677	1777.553589
1978.801748	0.091597	0.957677	1860.356934
1979.872397	1.064755	0.854249	538.765808
1979.873332	0.474086	0.854249	982.035889
1979.874234	0.092640	0.854249	1065.597534
1979.875125	0.091512	0.854249	1147.135132
1979.876078	0.091523	0.854249	1234.356934
1979.876981	0.091571	0.854249	1317.045532
1979.877875	0.091501	0.854249	1398.847900
1979.878764	0.091472	0.854249	1480.166626
1979.879698	0.091586	0.854249	1565.707642
1979.880606	0.091527	0.854249	1648.814209
1979.881506	0.091553	0.854249	1731.211670
1979.882437	0.091545	0.854249	1816.440430
1980.885896	1.102852	0.951711	551.425781
1980.886819	0.498182	0.951711	1011.248169
1980.887724	0.092769	0.951711	1095.203735
1980.888613	0.091626	0.951711	1176.659180
1980.889561	0.091582	0.951711	1263.479004
1980.890469	0.091567	0.951711	1346.622192
1980.891360	0.091597	0.951711	1428.234863
1980.892296	0.091652	0.951711	1514.020752
1980.893201	0.091630	0.951711	1596.945557
1980.894110	0.091545	0.951711	1680.160278
1980.895012	0.091538	0.951711	1762.727661
1980.895932	0.091597	0.951711	1846.996582
1981.965703	1.086885	0.862496	541.268616
1981.966628	0.498076	0.862496	1001.989136
1981.967530	0.092827	0.862496	1085.719238
1981.968422	0.091512	0.862496	1167.348389
1981.969375	0.091534	0.862496	1254.580688
1981.970279	0.091560	0.862496	1337.350952
1981.971172	0.091575	0.862496	1419.127197
1981.972084	0.091520	0.862496	1502.593262
1981.973002	0.091567	0.862496	1586.652100
1981.973900	0.091421	0.862496	1668.748047
1981.974800	0.091523	0.862496	1751.119141
1981.975690	0.091589	0.862496	1832.633667
1982.979302	1.053907	0.948778	479.527863
1982.980222	0.583191	0.948778	1016.063477
1982.981121	0.093593	0.948778	1100.203125
1982.982048	0.091589	0.948778	1185.106445
1982.982962	0.091611	0.948778	1268.839233
1982.983872	0.091648	0.948778	1352.238892
1982.984772	0.091648	0.948778	1434.722046
1982.985704	0.091597	0.948778	1520.090088
1982.986602	0.091593	0.948778	1602.340576
1982.987504	0.091611	0.948778	1684.973999
1982.988394	0.091505	0.948778	1766.413574
1982.989334	0.091604	0.948778	1852.521362
1984.060630	1.042581	0.877888	468.118683
1984.061533	0.608185	0.877888	1017.309570
1984.062423	0.094252	0.877888	1101.193604
1984.063388	0.091608	0.877888	1189.594971
1984.064288	0.091586	0.877888	1272.022095
1984.065183	0.091619	0.877888	1354.020752
1984.066095	0.091582	0.877888	1437.543579
1984.067037	0.091564	0.877888	1523.796631
1984.067933	0.091490	0.877888	1605.772095
1984.068823	0.091527	0.877888	1687.231201
1984.069753	0.091545	0.877888	1772.368408
1984.070665	0.091476	0.877888	1855.794312
1985.073871	1.039285	0.956218	459.363831
1985.074767	0.618680	0.956218	1013.701477
1985.075727	0.093160	0.956218	1103.135498
1985.076632	0.091597	0.956218	1186.030518
1985.077535	0.091582	0.956218	1268.729126
1985.078451	0.091516	0.956218	1352.557861
1985.079361	0.091571	0.956218	1435.887451
1985.080260	0.091505	0.956218	1518.150513
1985.081160	0.091538	0.956218	1600.534790
1985.082095	0.091586	0.956218	1686.167358
1985.083007	0.091542	0.956218	1769.653442
1985.083910	0.091538	0.956218	1852.312378
1986.154191	1.036201	0.869674	455.928497
1986.155153	0.581345	0.869674	1015.182617
1986.156058	0.093131	0.869674	1099.466309
1986.156960	0.091542	0.869674	1182.036987
1986.157872	0.091589	0.869674	1265.566528
1986.158767	0.091589	0.869674	1347.539062
1986.159704	0.091582	0.869674	1433.351440
1986.160614	0.091626	0.869674	1516.731079
1986.161544	0.091608	0.869674	1601.926270
1986.162431	0.091545	0.869674	1683.127075
1986.163385	0.091597	0.869674	1770.510254
1986.164280	0.091567	0.869674	1852.463013
1987.167948	1.042445	0.954188	460.760712
1987.168942	0.479883	0.954188	937.764221
1987.169849	0.092640	0.954188	1021.789062
1987.170749	0.091556	0.954188	1104.189819
1987.171682	0.091611	0.954188	1189.663208
1987.172585	0.091611	0.954188	1272.388184
1987.173487	0.091523	0.954188	1354.942383
1987.174375	0.091509	0.954188	1436.202148
1987.175306	0.091619	0.954188	1521.499146
1987.176207	0.091608	0.954188	1604.037598
1987.177108	0.091608	0.954188	1686.576050
1987.177995	0.091560	0.954188	1767.789795
1988.247391	1.050330	0.874290	474.748962
1988.248293	0.601128	0.874290	1016.966370
1988.249248	0.093915	0.874290	1106.655029
1988.250149	0.091512	0.874290	1189.107788
1988.251067	0.091637	0.874290	1273.230469
1988.251960	0.091531	0.874290	1354.967407
1988.252903	0.091615	0.874290	1441.360352
1988.253814	0.091534	0.874290	1524.748169
1988.254740	0.091600	0.874290	1609.570068
1988.255628	0.091578	0.874290	1690.891602
1988.256572	0.091615	0.874290	1777.376099
1988.257472	0.091538	0.874290	1859.760376
1989.262161	1.057837	0.956533	470.737427
1989.263169	0.459866	0.956533	934.282104
1989.264071	0.092428	0.956533	1017.652161
1989.264961	0.091608	0.956533	1099.182983
1989.265912	0.091626	0.956533	1186.319336
1989.266816	0.091589	0.956533	1269.116089
1989.267706	0.091626	0.956533	1350.663208
1989.268652	0.091619	0.956533	1437.334473
1989.269560	0.091582	0.956533	1520.490967
1989.270449	0.091505	0.956533	1601.838989
1989.271341	0.091538	0.956533	1683.490967
1989.272278	0.091589	0.956533	1769.310181
1990.340945	1.040017	0.869163	459.687531
1990.341899	0.540509	0.869163	975.333130
1990.342818	0.093036	0.869163	1060.833130
1990.343718	0.091604	0.869163	1143.276733
1990.344651	0.091648	0.869163	1228.784302
1990.345564	0.091692	0.869163	1312.499023
1990.346472	0.091589	0.869163	1395.662109
1990.347364	0.091597	0.869163	1477.366333
1990.348296	0.091652	0.869163	1562.785645
1990.349204	0.091659	0.869163	1646.011963
1990.350097	0.091600	0.869163	1727.811035
1990.350992	0.091571	0.869163	1809.767090
1991.356514	1.045005	0.966370	473.387207
1991.357426	0.593126	0.966370	1014.318298
1991.358313	0.093955	0.966370	1097.656494
1991.359263	0.091520	0.966370	1184.600342
1991.360175	0.091615	0.966370	1268.153198
1991.361096	0.091586	0.966370	1352.503662
1991.361985	0.091611	0.966370	1433.946167
1991.362947	0.091615	0.966370	1522.079834
1991.363848	0.091641	0.966370	1604.648071
1991.364739	0.091622	0.966370	1686.283569
1991.365682	0.091644	0.966370	1772.704102
1991.366589	0.091582	0.966370	1855.769043
1992.435290	1.047843	0.873690	465.242340
1992.436219	0.582334	0.873690	1006.230591
1992.437108	0.093743	0.873690	1089.567871
1992.438049	0.091586	0.873690	1175.750000
1992.438955	0.091582	0.873690	1258.723267
1992.439853	0.091663	0.873690	1341.036255
1992.440741	0.091630	0.873690	1422.403320
1992.441700	0.091677	0.873690	1510.321777
1992.442601	0.091644	0.873690	1592.893311
1992.443500	0.091586	0.873690	1675.228882
1992.444416	0.091575	0.873690	1759.111328
1992.445328	0.091622	0.873690	1842.670898
1993.450572	1.039995	0.964928	459.677826
1993.451550	0.515013	0.964928	963.360962
1993.452454	0.092864	0.964928	1047.309814
1993.453355	0.091483	0.964928	1129.736084
1993.454245	0.091564	0.964928	1211.227783
1993.455175	0.091615	0.964928	1296.429687
1993.456102	0.091633	0.964928	1381.373779
1993.457004	0.091619	0.964928	1464.013794
1993.457894	0.091556	0.964928	1545.499023
1993.458847	0.091567	0.964928	1632.762695
1993.459751	0.091556	0.964928	1715.529663
1993.460670	0.091597	0.964928	1799.707031
1994.529113	1.052941	0.875076	478.035034
1994.530014	0.600157	0.875076	1018.776917
1994.530967	0.093973	0.875076	1108.333496
1994.531874	0.091538	0.875076	1191.358521
1994.532779	0.091571	0.875076	1274.230347
1994.533666	0.091553	0.875076	1355.437622
1994.534598	0.091560	0.875076	1440.771606
1994.535502	0.091597	0.875076	1523.574951
1994.536406	0.091571	0.875076	1606.355225
1994.537290	0.091498	0.875076	1687.239258
1994.538217	0.091593	0.875076	1772.145996
1994.539129	0.091556	0.875076	1855.645386
1995.546451	1.037893	0.987792	460.824524
1995.547353	0.614136	0.987792	1014.774963
1995.548265	0.094296	0.987792	1100.772583
1995.549210	0.091553	0.987792	1187.289917
1995.550117	0.091578	0.987792	1270.351562
1995.551008	0.091545	0.987792	1351.918579
1995.551949	0.091567	0.987792	1438.083496
1995.552852	0.091531	0.987792	1520.735718
1995.553770	0.091593	0.987792	1604.818115
1995.554656	0.091578	0.987792	1685.956543
1995.555588	0.091571	0.987792	1771.300781
1995.556491	0.091476	0.987792	1853.903442
1996.622571	1.066014	0.885477	493.564667
1996.623478	0.581232	0.885477	1020.741821
1996.624368	0.093812	0.885477	1104.234741
1996.625315	0.091593	0.885477	1190.973267
1996.626228	0.091677	0.885477	1274.674561
1996.627147	0.091699	0.885477	1358.946167
1996.628033	0.091655	0.885477	1440.152710
1996.628992	0.091630	0.885477	1528.025513
1996.629901	0.091622	0.885477	1611.310181
1996.630791	0.091652	0.885477	1692.880127
1996.631734	0.091670	0.885477	1779.324829
1996.632644	0.091622	0.885477	1862.701172
1997.639653	1.069402	0.961334	488.716644
1997.640554	0.581777	0.961334	1012.898071
1997.641491	0.093149	0.961334	1100.179077
1997.642415	0.091523	0.961334	1184.746704
1997.643319	0.091571	0.961334	1267.526978
1997.644204	0.091567	0.961334	1348.564087
1997.645151	0.091652	0.961334	1435.358154
1997.646051	0.091578	0.961334	1517.778687
1997.646939	0.091498	0.961334	1599.028687
1997.647876	0.091674	0.961334	1684.926880
1997.648768	0.091494	0.961334	1766.539673
1997.649662	0.091542	0.961334	1848.377930
1998.715869	1.048835	0.883338	471.975922
1998.716772	0.601044	0.883338	1014.718384
1998.717736	0.093065	0.883338	1104.433228
1998.718649	0.091534	0.883338	1188.004150
1998.719538	0.091578	0.883338	1269.417358
1998.720465	0.091520	0.883338	1354.256226
1998.721381	0.091597	0.883338	1438.158813
1998.722287	0.091527	0.883338	1521.082397
1998.723186	0.091512	0.883338	1603.352051
1998.724118	0.091604	0.883338	1688.726929
1998.725016	0.091553	0.883338	1770.941284
1998.725920	0.091461	0.883338	1853.622192
1999.733965	1.040193	0.972070	457.684845
1999.734951	0.523323	0.972070	973.681030
1999.735843	0.092831	0.972070	1056.486084
1999.736757	0.091582	0.972070	1140.192017
1999.737660	0.091626	0.972070	1222.930298
1999.738619	0.091644	0.972070	1310.817139
1999.739519	0.091641	0.972070	1393.293701
1999.740409	0.091586	0.972070	1474.804932
1999.741360	0.091681	0.972070	1561.993530
1999.742258	0.091652	0.972070	1644.296631
1999.743153	0.091626	0.972070	1726.301880
1999.744061	0.091611	0.972070	1809.484985
2000.809811	1.045272	0.893151	465.146149
2000.810788	0.511040	0.893151	964.432251
2000.811693	0.092853	0.893151	1048.463989
2000.812587	0.091516	0.893151	1130.279419
2000.813496	0.091538	0.893151	1213.487549
2000.814428	0.091560	0.893151	1298.821533
2000.815340	0.091534	0.893151	1382.300903
2000.816238	0.091516	0.893151	1464.482422
2000.817177	0.091534	0.893151	1550.433228
2000.818081	0.091637	0.893151	1633.273071
2000.818984	0.091542	0.893151	1715.935303
2000.819872	0.091604	0.893151	1797.279663
2001.827312	1.077063	0.972372	500.834290
2001.828246	0.541245	0.972372	1006.357178
2001.829142	0.093226	0.972372	1089.887939
2001.830035	0.091542	0.972372	1171.634766
2001.830965	0.091608	0.972372	1256.829834
2001.831874	0.091564	0.972372	1340.061279
2001.832773	0.091545	0.972372	1422.360596
2001.833712	0.091597	0.972372	1508.369873
2001.834620	0.091652	0.972372	1591.589600
2001.835528	0.091597	0.972372	1674.759399
2001.836417	0.091582	0.972372	1756.175781
2001.837363	0.091633	0.972372	1842.860840
2002.904288	1.049341	0.887197	464.858002
2002.905222	0.576584	0.887197	1003.387939
2002.906123	0.093567	0.887197	1087.691650
2002.907013	0.091465	0.887197	1169.095337
2002.907965	0.091575	0.887197	1256.274414
2002.908860	0.091542	0.887197	1338.204224
2002.909752	0.091626	0.887197	1419.934570
2002.910688	0.091641	0.887197	1505.710205
2002.911592	0.091534	0.887197	1588.457275
2002.912491	0.091586	0.887197	1670.792847
2002.913425	0.091560	0.887197	1756.309937
2002.914338	0.091611	0.887197	1839.951050
2003.920849	1.045525	0.988103	461.076447
2003.921783	0.581111	0.988103	1003.833984
2003.922679	0.093647	0.988103	1087.742065
2003.923612	0.091553	0.988103	1173.160767
2003.924522	0.091531	0.988103	1256.453735
2003.925425	0.091509	0.988103	1339.086182
2003.926314	0.091600	0.988103	1420.518921
2003.927263	0.091663	0.988103	1507.506714
2003.928166	0.091549	0.988103	1590.175537
2003.929056	0.091608	0.988103	1671.706299
2003.929980	0.091564	0.988103	1756.311157
2003.930885	0.091578	0.988103	1839.189575
2004.998620	1.050209	0.897022	469.443298
2004.999520	0.599736	0.897022	1009.205933
2005.000471	0.093094	0.897022	1097.738770
2005.001386	0.091494	0.897022	1181.455933
2005.002287	0.091490	0.897022	1263.888916
2005.003208	0.091659	0.897022	1348.306763
2005.004114	0.091600	0.897022	1431.296631
2005.005023	0.091553	0.897022	1514.518066
2005.005914	0.091538	0.897022	1596.078491
2005.006853	0.091600	0.897022	1682.091187
2005.007745	0.091666	0.897022	1763.857544
2005.008647	0.091582	0.897022	1846.464600
2006.014547	1.048271	0.991398	469.625610
2006.015449	0.604790	0.991398	1015.146240
2006.016374	0.094120	0.991398	1102.207153
2006.017293	0.091611	0.991398	1186.397949
2006.018203	0.091512	0.991398	1269.674316
2006.019098	0.091575	0.991398	1351.633667
2006.020025	0.091611	0.991398	1436.557373
2006.020929	0.091648	0.991398	1519.407104
2006.021834	0.091626	0.991398	1602.328613
2006.022723	0.091545	0.991398	1683.712524
2006.023667	0.091523	0.991398	1770.110596
2006.024576	0.091538	0.991398	1853.318726
2007.093113	1.060558	0.898891	514.370605
2007.094042	0.527164	0.898891	1004.106201
2007.094944	0.092988	0.898891	1087.981689
2007.095830	0.091538	0.898891	1169.084473
2007.096776	0.091593	0.898891	1255.731445
2007.097686	0.091597	0.898891	1339.084473
2007.098593	0.091644	0.898891	1422.205811
2007.099485	0.091593	0.898891	1503.906738
2007.100428	0.091644	0.898891	1590.327271
2007.101341	0.091534	0.898891	1673.898193
2007.102236	0.091523	0.898891	1755.811646
2007.103176	0.091586	0.898891	1841.902222
2008.108641	1.048777	0.992091	475.095917
2008.109543	0.600198	0.992091	1016.474243
2008.110485	0.094135	0.992091	1105.148926
2008.111399	0.091509	0.992091	1188.787964
2008.112302	0.091578	0.992091	1271.483276
2008.113186	0.091604	0.992091	1352.461182
2008.114121	0.091578	0.992091	1438.086914
2008.115031	0.091593	0.992091	1521.436523
2008.115950	0.091593	0.992091	1605.610474
2008.116841	0.091655	0.992091	1687.275269
2008.117795	0.091637	0.992091	1774.696899
2008.118701	0.091523	0.992091	1857.617187
2009.187044	1.052091	0.897336	476.597229
2009.187980	0.563925	0.897336	1004.430664
2009.188867	0.093490	0.897336	1087.356323
2009.189799	0.091523	0.897336	1172.656128
2009.190704	0.091575	0.897336	1255.531250
2009.191600	0.091575	0.897336	1337.582153
2009.192488	0.091545	0.897336	1418.874512
2009.193441	0.091619	0.897336	1506.187134
2009.194348	0.091494	0.897336	1589.172363
2009.195242	0.091611	0.897336	1671.072876
2009.196185	0.091578	0.897336	1757.431274
2009.197084	0.091615	0.897336	1839.793091
2010.202440	1.034711	0.985750	452.168610
2010.203427	0.533463	0.985750	978.696655
2010.204329	0.092904	0.985750	1062.496094
2010.205227	0.091589	0.985750	1144.743286
2010.206169	0.091615	0.985750	1231.044556
2010.207077	0.091622	0.985750	1314.237671
2010.207984	0.091545	0.985750	1397.269409
2010.208872	0.091578	0.985750	1478.591064
2010.209830	0.091626	0.985750	1566.368774
2010.210726	0.091545	0.985750	1648.393433
2010.211626	0.091600	0.985750	1730.833740
2010.212514	0.091611	0.985750	1812.184570
2011.281111	1.045140	0.904120	470.313171
2011.282017	0.603212	0.904120	1016.822998
2011.282909	0.093959	0.904120	1100.634155
2011.283836	0.091578	0.904120	1185.527344
2011.284761	0.091597	0.904120	1270.254272
2011.285685	0.091564	0.904120	1354.859131
2011.286575	0.091553	0.904120	1436.341064
2011.287530	0.091549	0.904120	1523.770386
2011.288429	0.091626	0.904120	1606.142090
2011.289317	0.091630	0.904120	1687.509155
2011.290262	0.091600	0.904120	1774.071533
2011.291171	0.091597	0.904120	1857.332886
2012.296140	1.038911	0.994641	459.198700
2012.297107	0.516603	0.994641	958.753540
2012.298016	0.092919	0.994641	1043.216675
2012.298907	0.091531	0.994641	1124.770630
2012.299844	0.091633	0.994641	1210.630981
2012.300748	0.091553	0.994641	1293.394653
2012.301656	0.091571	0.994641	1376.541138
2012.302554	0.091553	0.994641	1458.755493
2012.303502	0.091597	0.994641	1545.589111
2012.304406	0.091527	0.994641	1628.329590
2012.305290	0.091512	0.994641	1709.226562
2012.306222	0.091626	0.994641	1794.621948
2013.375182	1.039669	0.915424	460.573425
2013.376157	0.519170	0.915424	966.764038
2013.377062	0.092977	0.915424	1050.908447
2013.377958	0.091571	0.915424	1132.956055
2013.378845	0.091578	0.915424	1214.186035
2013.379800	0.091578	0.915424	1301.643433
2013.380710	0.091582	0.915424	1384.983032
2013.381608	0.091593	0.915424	1467.233521
2013.382538	0.091630	0.915424	1552.449097
2013.383436	0.091575	0.915424	1634.683228
2013.384335	0.091523	0.915424	1716.962769
2013.385224	0.091582	0.915424	1798.379150
2014.390143	1.099797	0.998963	541.100281
2014.391070	0.503390	0.998963	1007.742676
2014.391996	0.092644	0.998963	1093.531006
2014.392884	0.091567	0.998963	1174.842896
2014.393832	0.091542	0.998963	1261.624512
2014.394732	0.091593	0.998963	1344.058228
2014.395621	0.091553	0.998963	1425.448608
2014.396569	0.091534	0.998963	1512.223267
2014.397479	0.091520	0.998963	1595.506226
2014.398402	0.091582	0.998963	1680.036377
2014.399302	0.091589	0.998963	1762.466797
2014.400234	0.091600	0.998963	1847.838379
2015.469407	1.050798	0.906634	469.706848
2015.470341	0.572941	0.906634	1004.833435
2015.471235	0.093560	0.906634	1088.475708
2015.472163	0.091549	0.906634	1173.433228
2015.473064	0.091604	0.906634	1255.968384
2015.473977	0.091549	0.906634	1339.552734
2015.474876	0.091593	0.906634	1421.894897
2015.475796	0.091567	0.906634	1506.136841
2015.476700	0.091586	0.906634	1588.930298
2015.477606	0.091567	0.906634	1671.890381
2015.478521	0.091586	0.906634	1755.691284
2015.479409	0.091604	0.906634	1837.035645
2016.484551	1.035875	1.016744	452.677460
2016.485529	0.572256	1.016744	1012.343628
2016.486425	0.092966	1.016744	1095.641479
2016.487329	0.091582	1.016744	1178.431641
2016.488220	0.091578	1.016744	1260.027954
2016.489153	0.091633	1.016744	1345.521851
2016.490056	0.091608	1.016744	1428.243530
2016.490958	0.091589	1.016744	1510.857178
2016.491846	0.091611	1.016744	1592.208008
2016.492788	0.091586	1.016744	1678.481689
2016.493699	0.091589	1.016744	1761.919556
2016.494591	0.091578	1.016744	1843.607422
2017.562958	1.038750	0.906199	457.049957
2017.563866	0.612612	0.906199	1013.301880
2017.564755	0.094230	0.906199	1097.072144
2017.565713	0.091578	0.906199	1184.804199
2017.566613	0.091593	0.906199	1267.237915
2017.567516	0.091567	0.906199	1349.923218
2017.568404	0.091604	0.906199	1431.267578
2017.569345	0.091619	0.906199	1517.480713
2017.570254	0.091512	0.906199	1600.665527
2017.571140	0.091542	0.906199	1681.771484
2017.572074	0.091597	0.906199	1767.322754
2017.572984	0.091586	0.906199	1850.665771
2018.577614	1.034216	0.987075	452.986725
2018.578570	0.593851	0.987075	1020.708618
2018.579466	0.093373	0.987075	1104.370605
2018.580364	0.091542	0.987075	1186.575073
2018.581254	0.091685	0.987075	1268.174316
2018.582193	0.091593	0.987075	1354.180176
2018.583097	0.091622	0.987075	1437.006714
2018.584003	0.091652	0.987075	1520.043091
2018.584891	0.091578	0.987075	1601.364746
2018.585841	0.091626	0.987075	1688.409424
2018.586751	0.091582	0.987075	1771.749023
2018.587643	0.091641	0.987075	1853.492432
2019.657178	1.043569	0.917108	467.519043
2019.658081	0.605244	0.917108	1014.054504
2019.659019	0.094010	0.917108	1102.235840
2019.659934	0.091608	0.917108	1186.056885
2019.660835	0.091589	0.917108	1268.578857
2019.661722	0.091637	0.917108	1349.860840
2019.662659	0.091633	0.917108	1435.721191
2019.663567	0.091626	0.917108	1518.917603
2019.664465	0.091567	0.917108	1601.145142
2019.665354	0.091666	0.917108	1682.636475
2019.666294	0.091655	0.917108	1768.792480
2019.667194	0.091589	0.917108	1851.222900
2020.672088	1.050084	0.997630	470.437744
2020.673016	0.572677	0.997630	1001.881958
2020.673922	0.093552	0.997630	1086.640259
2020.674821	0.091512	0.997630	1168.909912
2020.675756	0.091633	0.997630	1254.587036
2020.676665	0.091593	0.997630	1337.845093
2020.677554	0.091582	0.997630	1419.261475
2020.678479	0.091681	0.997630	1504.066284
2020.679383	0.091600	0.997630	1586.873047
2020.680289	0.091608	0.997630	1669.869629
2020.681177	0.091604	0.997630	1751.213989
2020.682130	0.091597	0.997630	1838.505615
2021.750485	1.044210	0.925116	465.717743
2021.751381	0.604933	0.925116	1007.737549
2021.752323	0.093384	0.925116	1095.705078
2021.753238	0.091501	0.925116	1179.428955
2021.754136	0.091586	0.925116	1261.672852
2021.755074	0.091575	0.925116	1347.569946
2021.755978	0.091560	0.925116	1430.340210
2021.756877	0.091549	0.925116	1512.642822
2021.757761	0.091545	0.925116	1593.568970
2021.758705	0.091648	0.925116	1680.084595
2021.759615	0.091589	0.925116	1763.430908
2021.760512	0.091626	0.925116	1845.619385
2022.766424	1.049436	1.014710	471.196747
2022.767329	0.600007	1.014710	1014.203369
2022.768262	0.093988	1.014710	1101.894165
2022.769174	0.091465	1.014710	1185.310059
2022.770076	0.091564	1.014710	1267.900513
2022.770963	0.091549	1.014710	1349.104492
2022.771913	0.091597	1.014710	1436.121338
2022.772813	0.091600	1.014710	1518.561646
2022.773709	0.091571	1.014710	1600.609253
2022.774604	0.091564	1.014710	1682.558838
2022.775552	0.091648	1.014710	1769.441040
2022.776460	0.091549	1.014710	1852.567627
2023.844994	1.096780	0.917712	540.712402
2023.845922	0.502156	0.917712	1006.712891
2023.846827	0.092813	0.917712	1090.708252
2023.847712	0.091549	0.917712	1171.729126
2023.848659	0.091685	0.917712	1258.554443
2023.849561	0.091622	0.917712	1341.197754
2023.850456	0.091560	0.917712	1423.144043
2023.851396	0.091626	0.917712	1509.272461
2023.852299	0.091659	0.917712	1592.040527
2023.853203	0.091538	0.917712	1674.791016
2023.854095	0.091512	0.917712	1756.420166
2023.855028	0.091593	0.917712	1841.876465
2024.860619	1.037087	1.009827	454.244293
2024.861595	0.516918	1.009827	958.755981
2024.862504	0.092882	1.009827	1043.185791
2024.863411	0.091520	1.009827	1126.194214
2024.864301	0.091578	1.009827	1207.698975
2024.865246	0.091549	1.009827	1294.212891
2024.866153	0.091516	1.009827	1377.218018
2024.867057	0.091615	1.009827	1460.037964
2024.867994	0.091659	1.009827	1545.922363
2024.868889	0.091597	1.009827	1627.901367
2024.869789	0.091571	1.009827	1710.315308
2024.870673	0.091538	1.009827	1791.234985
2025.938051	1.089346	0.923931	538.136780
2025.938982	0.498827	0.923931	1002.544617
2025.939887	0.092736	0.923931	1086.470337
2025.940776	0.091556	0.923931	1167.864014
2025.941718	0.091597	0.923931	1254.148071
2025.942621	0.091600	0.923931	1336.863159
2025.943514	0.091604	0.923931	1418.665527
2025.944439	0.091611	0.923931	1503.406006
2025.945343	0.091633	0.923931	1586.242554
2025.946249	0.091564	0.923931	1669.199341
2025.947149	0.091520	0.923931	1751.567139
2025.948083	0.091619	0.923931	1837.138916
2026.954977	1.053431	1.019826	476.151001
2026.955899	0.579001	1.019826	1009.990356
2026.956792	0.093640	1.019826	1093.610962
2026.957721	0.091490	1.019826	1178.605591
2026.958630	0.091633	1.019826	1261.900269
2026.959532	0.091538	1.019826	1344.467651
2026.960422	0.091608	1.019826	1425.998535
2026.961353	0.091644	1.019826	1511.319336
2026.962262	0.091490	1.019826	1594.484131
2026.963171	0.091571	1.019826	1677.722168
2026.964060	0.091582	1.019826	1759.138550
2026.965002	0.091622	1.019826	1845.446777
2028.031741	1.087870	0.920270	522.177551
2028.032669	0.524561	0.920270	1008.969727
2028.033559	0.093160	0.920270	1091.882446
2028.034503	0.091644	0.920270	1178.394653
2028.035406	0.091608	0.920270	1261.116333
2028.036308	0.091670	0.920270	1343.802612
2028.037196	0.091648	0.920270	1425.186035
2028.038143	0.091721	0.920270	1512.046021
2028.039057	0.091615	0.920270	1595.782104
2028.039951	0.091652	0.920270	1677.718628
2028.040875	0.091633	0.920270	1762.387817
2028.041781	0.091677	0.920270	1845.447388
2029.049053	1.054508	1.022323	478.746674
2029.049952	0.601534	1.022323	1019.526123
2029.050899	0.094043	1.022323	1108.584839
2029.051804	0.091611	1.022323	1191.493042
2029.052708	0.091553	1.022323	1274.256714
2029.053602	0.091589	1.022323	1356.137573
2029.054538	0.091630	1.022323	1441.902954
2029.055438	0.091597	1.022323	1524.339966
2029.056344	0.091531	1.022323	1607.266846
2029.057231	0.091553	1.022323	1688.474121
2029.058172	0.091593	1.022323	1774.663086
2029.059084	0.091611	1.022323	1858.212646
2030.125024	1.050458	0.918973	467.453674
2030.125934	0.602662	0.918973	1015.876404
2030.126821	0.094142	0.918973	1099.380249
2030.127782	0.091604	0.918973	1187.411743
2030.128682	0.091641	0.918973	1269.888306
2030.129581	0.091619	0.918973	1352.253418
2030.130475	0.091619	0.918973	1434.160522
2030.131424	0.091703	0.918973	1521.186523
2030.132329	0.091619	0.918973	1604.101440
2030.133228	0.091611	0.918973	1686.460083
2030.134149	0.091670	0.918973	1770.888062
2030.135041	0.091696	0.918973	1852.680542
2031.143628	1.042650	1.018762	458.766113
2031.144599	0.516892	1.018762	960.668335
2031.145505	0.093018	1.018762	1044.942261
2031.146405	0.091567	1.018762	1127.352905
2031.147339	0.091619	1.018762	1212.924683
2031.148242	0.091619	1.018762	1295.656372
2031.149138	0.091575	1.018762	1377.707275
2031.150026	0.091608	1.018762	1459.054932
2031.150965	0.091648	1.018762	1545.112305
2031.151873	0.091589	1.018762	1628.275391
2031.152772	0.091608	1.018762	1710.630737
2031.153661	0.091732	1.018762	1792.180664
2032.218734	1.057859	0.925764	488.730835
2032.219650	0.576647	0.925764	1016.939209
2032.220537	0.093677	0.925764	1100.030518
2032.221486	0.091531	0.925764	1186.893188
2032.222395	0.091600	0.925764	1270.157959
2032.223316	0.091630	0.925764	1354.548828
2032.224210	0.091600	0.925764	1436.439575
2032.225159	0.091567	0.925764	1523.337036
2032.226068	0.091564	0.925764	1606.568481
2032.226986	0.091604	0.925764	1690.661011
2032.227872	0.091553	0.925764	1771.776733
2032.228824	0.091498	0.925764	1858.882690
2033.237339	1.062832	1.000349	486.777069
2033.238307	0.502189	1.000349	972.895752
2033.239207	0.092875	1.000349	1056.483032
2033.240094	0.091586	1.000349	1137.719482
2033.241029	0.091575	1.000349	1223.341797
2033.241941	0.091567	1.000349	1306.851196
2033.242845	0.091560	1.000349	1389.621460
2033.243783	0.091553	1.000349	1475.497925
2033.244693	0.091648	1.000349	1558.897583
2033.245594	0.091589	1.000349	1641.419556
2033.246482	0.091567	1.000349	1722.731445
2033.247427	0.091659	1.000349	1809.349121
2034.312153	1.059800	0.927948	480.089294
2034.313069	0.585011	0.927948	1015.959351
2034.313957	0.093962	0.927948	1099.397949
2034.314920	0.091567	0.927948	1187.577393
2034.315816	0.091542	0.927948	1269.598755
2034.316739	0.091670	0.927948	1354.210083
2034.317624	0.091604	0.927948	1435.279663
2034.318580	0.091630	0.927948	1522.877563
2034.319493	0.091542	0.927948	1606.455200
2034.320390	0.091567	0.927948	1688.591187
2034.321316	0.091611	0.927948	1773.423340
2034.322221	0.091586	0.927948	1856.308350
2035.331802	1.049084	1.023133	473.137085
2035.332725	0.575610	1.023133	1004.425415
2035.333621	0.093571	1.023133	1088.264648
2035.334582	0.091549	1.023133	1176.243286
2035.335489	0.091608	1.023133	1259.331421
2035.336382	0.091571	1.023133	1341.104370
2035.337311	0.091663	1.023133	1426.258911
2035.338218	0.091670	1.023133	1509.403564
2035.339119	0.091567	1.023133	1591.905762
2035.340015	0.091582	1.023133	1673.963257
2035.340953	0.091597	1.023133	1759.880981
2035.341860	0.091604	1.023133	1842.965820
2036.406090	1.037051	0.926530	456.302368
2036.407072	0.527417	0.926530	974.225891
2036.407974	0.092933	0.926530	1058.051758
2036.408873	0.091538	0.926530	1140.344482
2036.409759	0.091556	0.926530	1221.463501
2036.410683	0.091615	0.926530	1306.115723
2036.411596	0.091538	0.926530	1389.689941
2036.412490	0.091560	0.926530	1471.544678
2036.413419	0.091545	0.926530	1556.590332
2036.414334	0.091604	0.926530	1640.407959
2036.415238	0.091600	0.926530	1723.214722
2036.416128	0.091571	0.926530	1804.712891
2037.425993	1.037618	1.030956	454.476868
2037.426969	0.535049	1.030956	976.684509
2037.427878	0.092915	1.030956	1061.144287
2037.428780	0.091553	1.030956	1143.724854
2037.429670	0.091553	1.030956	1225.206787
2037.430626	0.091586	1.030956	1312.762695
2037.431526	0.091553	1.030956	1395.160156
2037.432421	0.091520	1.030956	1477.070312
2037.433361	0.091589	1.030956	1563.164307
2037.434259	0.091604	1.030956	1645.424683
2037.435154	0.091531	1.030956	1727.344727
2037.436044	0.091538	1.030956	1808.813599
2038.501348	1.058474	0.937020	482.664215
2038.502251	0.588640	0.937020	1014.206299
2038.503182	0.093995	0.937020	1101.715942
2038.504086	0.091593	0.937020	1184.515991
2038.504997	0.091564	0.937020	1267.930542
2038.505887	0.091644	0.937020	1349.493896
2038.506820	0.091626	0.937020	1434.980957
2038.507729	0.091582	0.937020	1518.229004
2038.508629	0.091586	0.937020	1600.656128
2038.509514	0.091644	0.937020	1681.761353
2038.510464	0.091652	0.937020	1768.830322
2038.511365	0.091641	0.937020	1851.398560
2039.519317	1.046770	1.024575	467.906219
2039.520287	0.521602	1.024575	973.859741
2039.521190	0.093014	1.024575	1057.851318
2039.522085	0.091578	1.024575	1139.813965
2039.523002	0.091593	1.024575	1223.804810
2039.523928	0.091608	1.024575	1308.633545
2039.524837	0.091564	1.024575	1391.864990
2039.525735	0.091633	1.024575	1474.151733
2039.526672	0.091593	1.024575	1559.974365
2039.527576	0.091604	1.024575	1642.784424
2039.528475	0.091578	1.024575	1725.113403
2039.529359	0.091604	1.024575	1806.091309
2040.595406	1.036443	0.924689	457.071320
2040.596300	0.626730	0.924689	1017.367676
2040.597264	0.093292	0.924689	1107.301392
2040.598162	0.091498	0.924689	1189.466431
2040.599081	0.091597	0.924689	1273.643799
2040.599971	0.091630	0.924689	1355.194214
2040.600893	0.091542	0.924689	1439.595703
2040.601798	0.091527	0.924689	1522.427734
2040.602689	0.091567	0.924689	1604.014282
2040.603617	0.091549	0.924689	1688.971802
2040.604530	0.091549	0.924689	1772.556152
2040.605426	0.091549	0.924689	1854.584106
2041.613667	1.060917	1.022815	482.717133
2041.614594	0.562072	1.022815	1003.757446
2041.615485	0.093494	1.022815	1087.060303
2041.616425	0.091512	1.022815	1173.082031
2041.617322	0.091604	1.022815	1255.250854
2041.618222	0.091534	1.022815	1337.631836
2041.619111	0.091567	1.022815	1419.035278
2041.620046	0.091589	1.022815	1504.671387
2041.620951	0.091516	1.022815	1587.493408
2041.621854	0.091608	1.022815	1670.215088
2041.622755	0.091564	1.022815	1752.713989
2041.623688	0.091641	1.022815	1838.214722
2042.689611	1.038204	0.940335	454.733490
2042.690585	0.529153	0.940335	970.128296
2042.691494	0.092904	0.940335	1054.578125
2042.692412	0.091600	0.940335	1138.667236
2042.693305	0.091560	0.940335	1220.430420
2042.694268	0.091575	0.940335	1308.616821
2042.695161	0.091523	0.940335	1390.347290
2042.696046	0.091498	0.940335	1471.322876
2042.696988	0.091549	0.940335	1557.562134
2042.697901	0.091472	0.940335	1641.076172
2042.698805	0.091622	0.940335	1723.902710
2042.699702	0.091516	0.940335	1805.992676
2043.706487	1.077323	1.033059	512.805725
2043.707419	0.534177	1.033059	1010.658936
2043.708309	0.093164	1.033059	1093.574951
2043.709227	0.091520	1.033059	1177.590088
2043.710167	0.091648	1.033059	1263.739136
2043.711075	0.091520	1.033059	1346.839111
2043.711974	0.091589	1.033059	1429.177979
2043.712899	0.091652	1.033059	1513.955688
2043.713795	0.091560	1.033059	1595.993530
2043.714691	0.091593	1.033059	1678.060913
2043.715581	0.091553	1.033059	1759.542847
2043.716520	0.091637	1.033059	1845.589966
2044.783461	1.066831	0.938450	486.474945
2044.784395	0.548566	0.938450	998.835327
2044.785298	0.093215	0.938450	1083.008789
2044.786187	0.091582	0.938450	1164.425171
2044.787143	0.091564	0.938450	1251.960083
2044.788041	0.091553	0.938450	1334.174438
2044.788935	0.091560	0.938450	1416.029175
2044.789877	0.091586	0.938450	1502.302856
2044.790787	0.091593	0.938450	1585.652466
2044.791684	0.091531	0.938450	1667.755615
2044.792574	0.091509	0.938450	1749.198486
2044.793518	0.091626	0.938450	1835.693359
2045.800406	1.046818	1.035995	468.974304
2045.801312	0.603684	1.035995	1015.912048
2045.802201	0.094072	1.035995	1099.542236
2045.803155	0.091564	1.035995	1186.894043
2045.804064	0.091608	1.035995	1270.165405
2045.804960	0.091567	1.035995	1352.209717
2045.805878	0.091633	1.035995	1436.329102
2045.806777	0.091655	1.035995	1518.727173
2045.807672	0.091527	1.035995	1600.643921
2045.808561	0.091567	1.035995	1682.047363
2045.809502	0.091589	1.035995	1768.232910
2045.810395	0.091545	1.035995	1849.982910
2046.877912	1.052095	0.932431	473.442627
2046.878813	0.602212	0.932431	1016.035522
2046.879763	0.093574	0.932431	1104.931030
2046.880677	0.091597	0.932431	1188.650391
2046.881576	0.091589	0.932431	1270.989258
2046.882466	0.091575	0.932431	1352.490723
2046.883411	0.091608	0.932431	1439.059937
2046.884307	0.091586	0.932431	1521.120728
2046.885197	0.091619	0.932431	1602.661377
2046.886131	0.091696	0.932431	1688.305054
2046.887037	0.091600	0.932431	1771.294922
2046.887938	0.091589	0.932431	1853.816895
2047.894347	1.039438	1.033627	459.431824
2047.895248	0.611920	1.033627	1010.771851
2047.896224	0.092856	1.033627	1101.399780
2047.897136	0.091597	1.033627	1184.935913
2047.898039	0.091589	1.033627	1267.641113
2047.898968	0.091663	1.033627	1352.795654
2047.899866	0.091677	1.033627	1435.121826
2047.900756	0.091611	1.033627	1516.655884
2047.901647	0.091655	1.033627	1598.320679
2047.902595	0.091692	1.033627	1685.244629
2047.903494	0.091600	1.033627	1767.593384
2047.904398	0.091622	1.033627	1850.419922
2048.972168	1.065370	0.937382	530.554199
2048.973100	0.482168	0.937382	979.934753
2048.974005	0.092670	0.937382	1063.800781
2048.974895	0.091593	0.937382	1145.318604
2048.975829	0.091626	0.937382	1230.897217
2048.976733	0.091630	0.937382	1313.730469
2048.977637	0.091666	0.937382	1396.596802
2048.978526	0.091586	0.937382	1478.016479
2048.979477	0.091681	0.937382	1565.205078
2048.980384	0.091571	0.937382	1648.260010
2048.981280	0.091597	0.937382	1730.330688
2048.982204	0.091681	0.937382	1815.043823
2049.987690	1.065176	1.025663	493.176392
2049.988592	0.588556	1.025663	1024.053833
2049.989510	0.093911	1.025663	1110.264282
2049.990437	0.091571	1.025663	1195.150635
2049.991338	0.091575	1.025663	1277.659424
2049.992229	0.091630	1.025663	1359.301392
2049.993160	0.091641	1.025663	1444.618774
2049.994072	0.091622	1.025663	1528.178345
2049.994971	0.091604	1.025663	1610.530396
2049.995908	0.091633	1.025663	1696.390747
2049.996810	0.091586	1.025663	1779.001099
2049.997712	0.091545	1.025663	1861.575073
2051.066203	1.055720	0.941310	468.739777
2051.067122	0.585099	0.941310	1006.445679
2051.068048	0.093171	0.941310	1092.722412
2051.068944	0.091553	0.941310	1174.753662
2051.069895	0.091553	0.941310	1261.820312
2051.070802	0.091571	0.941310	1344.875244
2051.071695	0.091564	0.941310	1426.641602
2051.072650	0.091604	0.941310	1514.123413
2051.073560	0.091600	0.941310	1597.479736
2051.074459	0.091553	0.941310	1679.785645
2051.075344	0.091633	0.941310	1760.881104
2051.076270	0.091611	0.941310	1845.713135
2052.081934	1.070116	1.042856	540.408630
2052.082860	0.503496	1.042856	1006.645996
2052.083748	0.092783	1.042856	1089.037476
2052.084639	0.091487	1.042856	1170.552246
2052.085578	0.091582	1.042856	1256.547729
2052.086480	0.091560	1.042856	1339.134888
2052.087389	0.091589	1.042856	1422.389648
2052.088279	0.091531	1.042856	1503.852051
2052.089228	0.091608	1.042856	1590.787720
2052.090138	0.091553	1.042856	1674.100708
2052.091029	0.091549	1.042856	1755.670898
2052.091970	0.091630	1.042856	1841.894409
2053.160400	1.035487	0.940516	458.720764
2053.161309	0.607771	0.940516	1011.184570
2053.162197	0.094098	0.940516	1094.743530
2053.163139	0.091538	0.940516	1180.972412
2053.164054	0.091578	0.940516	1264.766602
2053.164945	0.091523	0.940516	1346.313965
2053.165873	0.091553	0.940516	1431.274902
2053.166794	0.091564	0.940516	1515.605103
2053.167692	0.091560	0.940516	1597.826050
2053.168581	0.091498	0.940516	1679.167603
2053.169509	0.091578	0.940516	1764.152344
2053.170417	0.091571	0.940516	1847.298828
2054.174667	1.035678	1.038118	453.626770
2054.175566	0.611060	1.038118	1002.969299
2054.176550	0.092838	1.038118	1094.322021
2054.177460	0.091567	1.038118	1177.648315
2054.178355	0.091663	1.038118	1259.686279
2054.179292	0.091626	1.038118	1345.539795
2054.180212	0.091542	1.038118	1429.758179
2054.181125	0.091589	1.038118	1513.379272
2054.182012	0.091578	1.038118	1594.609253
2054.182955	0.091615	1.038118	1681.002197
2054.183850	0.091578	1.038118	1762.964844
2054.184768	0.091615	1.038118	1847.067383
2055.253583	1.036567	0.944681	462.309021
2055.254477	0.616666	0.944681	1013.608643
2055.255429	0.093113	0.944681	1102.251953
2055.256347	0.091523	0.944681	1186.270508
2055.257252	0.091512	0.944681	1269.089233
2055.258184	0.091545	0.944681	1354.409546
2055.259100	0.091582	0.944681	1438.298706
2055.259996	0.091571	0.944681	1520.346313
2055.260887	0.091593	0.944681	1601.955688
2055.261833	0.091604	0.944681	1688.613037
2055.262736	0.091611	0.944681	1771.338135
2055.263635	0.091586	0.944681	1853.673706
2056.270418	1.046547	1.044443	464.666687
2056.271360	0.591295	1.044443	1021.666687
2056.272294	0.092904	1.044443	1108.439087
2056.273203	0.091593	1.044443	1191.697144
2056.274095	0.091633	1.044443	1273.434082
2056.275032	0.091560	1.044443	1359.225830
2056.275931	0.091586	1.044443	1441.561401
2056.276821	0.091567	1.044443	1523.056396
2056.277711	0.091593	1.044443	1604.574219
2056.278647	0.091648	1.044443	1690.356689
2056.279558	0.091626	1.044443	1773.828003
2056.280454	0.091604	1.044443	1855.905151
2057.348177	1.058152	0.951461	474.052032
2057.349171	0.470131	0.951461	941.361816
2057.350079	0.092457	0.951461	1025.312988
2057.350970	0.091553	0.951461	1106.886475
2057.351908	0.091615	0.951461	1192.821289
2057.352818	0.091611	0.951461	1276.187622
2057.353713	0.091615	0.951461	1358.182983
2057.354599	0.091564	0.951461	1439.308472
2057.355530	0.091597	0.951461	1524.584961
2057.356441	0.091549	0.951461	1607.986206
2057.357348	0.091560	0.951461	1691.031128
2057.358244	0.091604	0.951461	1773.108276
2058.363719	1.031594	1.041357	449.775116
2058.364681	0.568231	1.041357	996.413452
2058.365600	0.092886	1.041357	1081.775391
2058.366498	0.091531	1.041357	1163.969971
2058.367390	0.091560	1.041357	1245.641602
2058.368354	0.091571	1.041357	1333.916138
2058.369251	0.091637	1.041357	1416.114502
2058.370150	0.091553	1.041357	1498.420410
2058.371043	0.091549	1.041357	1580.173706
2058.371981	0.091659	1.041357	1666.149780
2058.372886	0.091641	1.041357	1749.084595
2058.373786	0.091578	1.041357	1831.505127
2059.441891	1.053823	0.960658	473.166626
2059.442819	0.569165	0.960658	1001.351807
2059.443710	0.093475	0.960658	1084.638306
2059.444651	0.091674	0.960658	1170.903198
2059.445547	0.091648	0.960658	1253.019775
2059.446446	0.091586	0.960658	1335.355347
2059.447335	0.091593	0.960658	1416.781494
2059.448276	0.091659	0.960658	1503.032593
2059.449182	0.091582	0.960658	1586.005859
2059.450081	0.091564	0.960658	1668.321655
2059.450981	0.091630	0.960658	1750.788330
2059.451899	0.091615	0.960658	1834.890869
2060.458331	1.052644	1.052620	468.426575
2060.459264	0.567400	1.052620	997.810669
2060.460160	0.093578	1.052620	1081.656494
2060.461102	0.091564	1.052620	1167.909546
2060.462003	0.091582	1.052620	1250.424927
2060.462898	0.091582	1.052620	1332.390869
2060.463787	0.091644	1.052620	1413.862671
2060.464726	0.091710	1.052620	1499.978516
2060.465627	0.091696	1.052620	1582.596191
2060.466533	0.091659	1.052620	1665.639160
2060.467422	0.091619	1.052620	1747.088135
2060.468365	0.091754	1.052620	1833.612305
2061.535589	1.074130	0.948718	495.173798
2061.536501	0.569052	0.948718	1014.148804
2061.537410	0.093607	0.948718	1099.237793
2061.538361	0.091626	0.948718	1186.374146
2061.539268	0.091553	0.948718	1269.412476
2061.540160	0.091542	0.948718	1351.067749
2061.541085	0.091685	0.948718	1435.875977
2061.541993	0.091604	0.948718	1519.052368
2061.542887	0.091611	0.948718	1600.952881
2061.543777	0.091644	0.948718	1682.516357
2061.544729	0.091707	0.948718	1769.821045
2061.545620	0.091648	0.948718	1851.479370
2062.552030	1.061583	1.042199	484.081909
2062.552936	0.589676	1.042199	1018.328796
2062.553830	0.093959	1.042199	1102.327881
2062.554778	0.091677	1.042199	1189.237915
2062.555685	0.091553	1.042199	1272.276245
2062.556582	0.091597	1.042199	1354.438477
2062.557512	0.091685	1.042199	1439.705078
2062.558408	0.091604	1.042199	1521.782227
2062.559307	0.091564	1.042199	1604.098022
2062.560197	0.091729	1.042199	1685.736450
2062.561138	0.091641	1.042199	1771.970215
2062.562025	0.091615	1.042199	1853.232666
2063.629512	1.034751	0.968541	454.255676
2063.630407	0.614670	0.968541	1004.385681
2063.631388	0.092919	0.968541	1095.538940
2063.632294	0.091655	0.968541	1178.578613
2063.633192	0.091589	0.968541	1260.825806
2063.634118	0.091674	0.968541	1345.715576
2063.635026	0.091692	0.968541	1428.971802
2063.635917	0.091593	0.968541	1510.581177
2063.636805	0.091674	0.968541	1591.987305
2063.637741	0.091696	0.968541	1677.814331
2063.638649	0.091542	0.968541	1760.934204
2063.639557	0.091619	0.968541	1844.123901
2064.647001	1.046675	1.056536	464.723633
2064.647898	0.603380	1.056536	1005.955627
2064.648860	0.093105	1.056536	1095.523071
2064.649767	0.091593	1.056536	1178.597900
2064.650660	0.091652	1.056536	1260.442749
2064.651610	0.091622	1.056536	1347.483887
2064.652515	0.091549	1.056536	1430.335815
2064.653431	0.091571	1.056536	1514.214844
2064.654321	0.091586	1.056536	1595.726074
2064.655256	0.091641	1.056536	1681.410034
2064.656160	0.091597	1.056536	1764.213379
2064.657069	0.091633	1.056536	1847.508057
2065.723922	1.072690	0.964227	547.072083
2065.724842	0.503873	0.964227	1010.635498
2065.725734	0.092900	0.964227	1093.502686
2065.726622	0.091553	0.964227	1174.801514
2065.727561	0.091681	0.964227	1260.889893
2065.728473	0.091703	0.964227	1344.522949
2065.729377	0.091630	0.964227	1427.356201
2065.730266	0.091586	0.964227	1508.775879
2065.731214	0.091659	0.964227	1595.668579
2065.732123	0.091575	0.964227	1678.910034
2065.733016	0.091542	0.964227	1760.656860
2065.733953	0.091677	0.964227	1846.558472
2066.741857	1.052699	1.056125	470.556427
2066.742768	0.594543	1.056125	1012.185547
2066.743655	0.094116	1.056125	1095.666626
2066.744621	0.091644	1.056125	1184.195068
2066.745525	0.091571	1.056125	1266.975342
2066.746424	0.091575	1.056125	1349.301025
2066.747317	0.091630	1.056125	1431.126343
2066.748247	0.091674	1.056125	1516.382812
2066.749141	0.091571	1.056125	1598.247314
2066.750031	0.091611	1.056125	1679.781372
2066.750964	0.091721	1.056125	1765.357300
2066.751879	0.091688	1.056125	1849.252075
2067.816395	1.037344	0.969709	459.543274
2067.817367	0.513816	0.969709	958.972412
2067.818277	0.092889	0.969709	1043.501709
2067.819192	0.091593	0.969709	1127.309326
2067.820093	0.091626	0.969709	1209.864380
2067.821026	0.091611	0.969709	1295.337769
2067.821932	0.091586	0.969709	1378.314453
2067.822821	0.091604	0.969709	1459.750366
2067.823746	0.091666	0.969709	1544.541626
2067.824647	0.091663	0.969709	1627.129639
2067.825550	0.091663	0.969709	1709.901001
2067.826435	0.091571	0.969709	1790.941406
2068.835789	1.038475	1.058864	456.929169
2068.836704	0.603776	1.058864	1009.383911
2068.837644	0.093285	1.058864	1097.071777
2068.838550	0.091560	1.058864	1180.025146
2068.839441	0.091644	1.058864	1261.680176
2068.840377	0.091674	1.058864	1347.486694
2068.841285	0.091652	1.058864	1430.706299
2068.842178	0.091564	1.058864	1512.472656
2068.843067	0.091619	1.058864	1593.921631
2068.844000	0.091597	1.058864	1679.381348
2068.844909	0.091619	1.058864	1762.662720
2068.845802	0.091578	1.058864	1844.442261
2069.910870	1.049813	0.975655	468.216705
2069.911798	0.572893	0.975655	999.861450
2069.912692	0.093567	0.975655	1083.510254
2069.913627	0.091637	0.975655	1169.190796
2069.914534	0.091633	0.975655	1252.302246
2069.915438	0.091600	0.975655	1335.109009
2069.916324	0.091600	0.975655	1416.266968
2069.917265	0.091626	0.975655	1502.487061
2069.918176	0.091641	0.975655	1585.971680
2069.919069	0.091619	0.975655	1667.787109
2069.919991	0.091534	0.975655	1752.181885
2069.920897	0.091641	0.975655	1835.208252
2070.928851	1.045023	1.053394	465.035339
2070.929748	0.601238	1.053394	1004.345642
2070.930719	0.093058	1.053394	1094.704834
2070.931629	0.091523	1.053394	1177.991211
2070.932521	0.091560	1.053394	1259.662842
2070.933409	0.091666	1.053394	1341.062500
2070.934347	0.091663	1.053394	1427.041992
2070.935240	0.091586	1.053394	1508.828003
2070.936159	0.091630	1.053394	1593.035645
2070.937058	0.091663	1.053394	1675.440308
2070.937996	0.091677	1.053394	1761.433594
2070.938914	0.091615	1.053394	1845.536133
2072.004564	1.044902	0.970398	461.846832
2072.005478	0.597986	0.970398	1008.405884
2072.006397	0.093981	0.970398	1094.774170
2072.007333	0.091633	0.970398	1180.542969
2072.008247	0.091553	0.970398	1264.222168
2072.009139	0.091556	0.970398	1345.890503
2072.010070	0.091648	0.970398	1431.214722
2072.010964	0.091622	0.970398	1513.125122
2072.011867	0.091619	0.970398	1595.856812
2072.012757	0.091615	0.970398	1677.394165
2072.013700	0.091688	0.970398	1763.856201
2072.014610	0.091600	0.970398	1847.212524
2073.023993	1.055504	1.057325	511.919525
2073.024908	0.527040	1.057325	994.160889
2073.025853	0.092563	1.057325	1081.633423
2073.026741	0.091589	1.057325	1162.964722
2073.027694	0.091622	1.057325	1250.280762
2073.028608	0.091534	1.057325	1333.943237
2073.029526	0.091553	1.057325	1417.988647
2073.030415	0.091600	1.057325	1499.421387
2073.031356	0.091549	1.057325	1585.569092
2073.032263	0.091567	1.057325	1668.620728
2073.033157	0.091549	1.057325	1750.465576
2073.034092	0.091674	1.057325	1836.180420
2074.098132	1.047437	0.984284	469.251587
2074.099033	0.603746	0.984284	1013.227051
2074.099995	0.093303	0.984284	1102.984741
2074.100900	0.091542	0.984284	1185.830078
2074.101799	0.091608	0.984284	1268.185425
2074.102687	0.091545	0.984284	1349.477783
2074.103637	0.091633	0.984284	1436.529419
2074.104544	0.091549	0.984284	1519.564453
2074.105447	0.091593	0.984284	1602.272949
2074.106376	0.091648	0.984284	1687.413940
2074.107282	0.091608	0.984284	1770.410522
2074.108182	0.091586	0.984284	1852.837646
2075.117552	1.070530	1.056814	501.007965
2075.118480	0.548104	1.056814	1009.648743
2075.119401	0.093007	1.056814	1095.307861
2075.120298	0.091567	1.056814	1177.443848
2075.121244	0.091593	1.056814	1264.090820
2075.122147	0.091575	1.056814	1346.782837
2075.123038	0.091611	1.056814	1428.408569
2075.123969	0.091626	1.056814	1513.712402
2075.124891	0.091578	1.056814	1598.147705
2075.125783	0.091597	1.056814	1679.851929
2075.126714	0.091659	1.056814	1765.186401
2075.127616	0.091597	1.056814	1847.806641
2076.191983	1.061265	0.985770	503.039429
2076.192894	0.556545	0.985770	1010.052307
2076.193841	0.093314	0.985770	1098.420898
2076.194752	0.091505	0.985770	1181.782104
2076.195675	0.091615	0.985770	1266.342773
2076.196565	0.091553	0.985770	1347.824707
2076.197520	0.091619	0.985770	1435.320557
2076.198420	0.091505	0.985770	1517.675171
2076.199308	0.091516	0.985770	1598.941528
2076.200249	0.091622	0.985770	1685.158081
2076.201160	0.091597	0.985770	1768.602661
2076.202057	0.091556	0.985770	1850.728760
2077.211600	1.038644	1.069084	459.080536
2077.212495	0.609093	1.069084	1004.218750
2077.213445	0.093237	1.069084	1092.794189
2077.214363	0.091527	1.069084	1176.816040
2077.215262	0.091575	1.069084	1259.141724
2077.216193	0.091641	1.069084	1344.459106
2077.217096	0.091681	1.069084	1427.246948
2077.218000	0.091633	1.069084	1510.083496
2077.218888	0.091593	1.069084	1591.418091
2077.219833	0.091670	1.069084	1678.046143
2077.220741	0.091655	1.069084	1761.269165
2077.221638	0.091534	1.069084	1843.375488
2078.285946	1.059089	0.987092	517.894653
2078.286875	0.509755	0.987092	991.456726
2078.287782	0.092933	0.987092	1075.747314
2078.288675	0.091604	0.987092	1157.549683
2078.289625	0.091688	0.987092	1244.653564
2078.290523	0.091685	0.987092	1326.986328
2078.291425	0.091593	0.987092	1409.603271
2078.292309	0.091633	0.987092	1490.607178
2078.293247	0.091619	0.987092	1576.545410
2078.294142	0.091600	0.987092	1658.527710
2078.295039	0.091556	0.987092	1740.653809
2078.295970	0.091681	0.987092	1826.008789
2079.305049	1.051472	1.063513	476.316895
2079.305945	0.605211	1.063513	1018.586121
2079.306903	0.093640	1.063513	1108.293335
2079.307811	0.091556	1.063513	1191.426514
2079.308732	0.091582	1.063513	1275.773560
2079.309618	0.091582	1.063513	1356.915283
2079.310552	0.091648	1.063513	1442.514404
2079.311456	0.091586	1.063513	1525.307861
2079.312349	0.091611	1.063513	1607.116821
2079.313293	0.091769	1.063513	1693.746582
2079.314203	0.091630	1.063513	1777.129517
2079.315106	0.091604	1.063513	1859.847900
2080.381019	1.043273	0.997372	464.256317
2080.381927	0.598477	0.997372	1007.673096
2080.382818	0.093970	0.997372	1091.400146
2080.383791	0.091523	0.997372	1180.452393
2080.384695	0.091538	0.997372	1263.202881
2080.385586	0.091556	0.997372	1344.779663
2080.386510	0.091630	0.997372	1429.445435
2080.387424	0.091520	0.997372	1513.094482
2080.388321	0.091564	0.997372	1595.227173
2080.389209	0.091597	0.997372	1676.565063
2080.390138	0.091589	0.997372	1761.651611
2080.391040	0.091630	0.997372	1844.301514
2081.399112	1.032799	1.069475	450.300354
2081.400085	0.547189	1.069475	982.715027
2081.400999	0.092911	1.069475	1067.635986
2081.401920	0.091567	1.069475	1151.969482
2081.402804	0.091589	1.069475	1232.934448
2081.403759	0.091608	1.069475	1320.419800
2081.404653	0.091564	1.069475	1402.277832
2081.405543	0.091644	1.069475	1483.841309
2081.406477	0.091586	1.069475	1569.382324
2081.407396	0.091549	1.069475	1653.515869
2081.408307	0.091600	1.069475	1736.963745
2081.409196	0.091630	1.069475	1818.422485
2082.474958	1.043643	0.991933	466.508209
2082.475939	0.498717	0.991933	955.749634
2082.476848	0.092736	0.991933	1040.046265
2082.477753	0.091549	0.991933	1122.898193
2082.478658	0.091619	0.991933	1205.813110
2082.479589	0.091622	0.991933	1291.113525
2082.480496	0.091626	0.991933	1374.218262
2082.481388	0.091589	0.991933	1455.916016
2082.482312	0.091648	0.991933	1540.598755
2082.483215	0.091586	0.991933	1623.300659
2082.484116	0.091637	0.991933	1705.865601
2082.485008	0.091582	0.991933	1787.556763
2083.492833	1.054329	1.076291	477.610840
2083.493764	0.578320	1.076291	1016.027039
2083.494651	0.093677	1.076291	1099.118286
2083.495592	0.091523	1.076291	1185.241821
2083.496507	0.091567	1.076291	1269.026001
2083.497411	0.091604	1.076291	1351.836060
2083.498303	0.091578	1.076291	1433.523926
2083.499251	0.091641	1.076291	1520.399292
2083.500159	0.091600	1.076291	1603.572388
2083.501054	0.091630	1.076291	1685.580933
2083.501978	0.091630	1.076291	1770.246704
2083.502885	0.091630	1.076291	1853.354736
2084.568962	1.095322	0.992731	534.517273
2084.569889	0.510059	0.992731	1007.341553
2084.570793	0.092908	0.992731	1091.330078
2084.571682	0.091575	0.992731	1172.739990
2084.572625	0.091641	0.992731	1259.157104
2084.573534	0.091479	0.992731	1342.312012
2084.574426	0.091527	0.992731	1423.954224
2084.575317	0.091593	0.992731	1505.563599
2084.576234	0.091677	0.992731	1589.631592
2084.577142	0.091597	0.992731	1672.801392
2084.578055	0.091582	0.992731	1756.415771
2084.578954	0.091633	0.992731	1838.794067
2085.586778	1.053992	1.081028	479.566223
2085.587684	0.592782	1.081028	1016.626709
2085.588625	0.093816	1.081028	1104.907471
2085.589526	0.091637	1.081028	1187.472412
2085.590429	0.091626	1.081028	1270.210693
2085.591322	0.091604	1.081028	1352.013062
2085.592269	0.091637	1.081028	1438.793213
2085.593166	0.091633	1.081028	1520.988281
2085.594069	0.091582	1.081028	1603.686890
2085.594956	0.091633	1.081028	1684.965576
2085.595892	0.091663	1.081028	1770.761719
2085.596798	0.091615	1.081028	1853.764893
2086.663256	1.050337	0.995213	474.752319
2086.664161	0.598510	0.995213	1016.403442
2086.665108	0.094014	0.995213	1105.434448
2086.666024	0.091556	0.995213	1189.300049
2086.666926	0.091534	0.995213	1271.864136
2086.667817	0.091615	0.995213	1353.493042
2086.668769	0.091619	0.995213	1440.713989
2086.669663	0.091655	0.995213	1522.653809
2086.670562	0.091622	0.995213	1605.022217
2086.671451	0.091644	0.995213	1686.494019
2086.672389	0.091721	0.995213	1772.528442
2086.673300	0.091575	0.995213	1855.953003
2087.681242	1.051436	1.094797	474.197449
2087.682209	0.510322	1.094797	967.679077
2087.683117	0.092849	1.094797	1051.986084
2087.684008	0.091637	1.094797	1133.634644
2087.684941	0.091567	1.094797	1219.067017
2087.685847	0.091648	1.094797	1302.100098
2087.686760	0.091516	1.094797	1385.654297
2087.687660	0.091578	1.094797	1468.074829
2087.688590	0.091556	1.094797	1553.222290
2087.689494	0.091578	1.094797	1636.009155
2087.690398	0.091531	1.094797	1718.752930
2087.691283	0.091512	1.094797	1799.741455
2088.757192	1.029434	0.989053	447.803619
2088.758131	0.610074	0.989053	1020.663574
2088.759051	0.093300	0.989053	1106.499146
2088.759955	0.091553	0.989053	1189.262817
2088.760848	0.091633	0.989053	1271.091309
2088.761791	0.091659	0.989053	1357.525635
2088.762695	0.091688	0.989053	1440.411743
2088.763587	0.091571	0.989053	1522.093140
2088.764474	0.091589	0.989053	1603.332886
2088.765408	0.091670	0.989053	1688.952637
2088.766316	0.091600	0.989053	1772.125732
2088.767216	0.091648	0.989053	1854.608887
2089.774425	1.049297	1.093782	470.084991
2089.775323	0.597836	1.093782	1006.941406
2089.776294	0.093007	1.093782	1097.250854
2089.777189	0.091545	1.093782	1179.183960
2089.778078	0.091575	1.093782	1260.593872
2089.779002	0.091564	1.093782	1345.198730
2089.779907	0.091571	1.093782	1428.070557
2089.780829	0.091589	1.093782	1512.515991
2089.781730	0.091663	1.093782	1595.104004
2089.782679	0.091589	1.093782	1682.022339
2089.783580	0.091692	1.093782	1764.636719
2089.784468	0.091622	1.093782	1845.997314
2090.851331	1.059730	0.997537	523.506775
2090.852268	0.490309	0.997537	982.926147
2090.853175	0.092743	0.997537	1067.043945
2090.854060	0.091604	0.997537	1148.113525
2090.855006	0.091692	0.997537	1234.854004
2090.855906	0.091626	0.997537	1317.317383
2090.856800	0.091604	0.997537	1399.211304
2090.857694	0.091593	0.997537	1481.095459
2090.858639	0.091663	0.997537	1567.716553
2090.859545	0.091575	0.997537	1650.683228
2090.860442	0.091666	0.997537	1732.907837
2090.861378	0.091648	0.997537	1818.690308
2091.868755	1.049308	1.093455	470.089905
2091.869681	0.581276	1.093455	1008.351135
2091.870584	0.093593	1.093455	1092.865234
2091.871526	0.091619	1.093455	1179.170044
2091.872435	0.091567	1.093455	1262.404785
2091.873330	0.091600	1.093455	1344.387085
2091.874213	0.091637	1.093455	1425.302490
2091.875170	0.091699	1.093455	1513.058594
2091.876073	0.091589	1.093455	1595.763794
2091.876972	0.091732	1.093455	1678.231079
2091.877926	0.091659	1.093455	1765.673706
2091.878831	0.091674	1.093455	1848.638306
2092.944998	1.061246	1.001183	486.050781
2092.945930	0.561387	1.001183	1009.263184
2092.946827	0.093409	1.001183	1093.051392
2092.947757	0.091670	1.001183	1178.304443
2092.948673	0.091666	1.001183	1262.270752
2092.949585	0.091633	1.001183	1345.840332
2092.950483	0.091703	1.001183	1428.189453
2092.951417	0.091637	1.001183	1513.778320
2092.952327	0.091545	1.001183	1597.084595
2092.953238	0.091652	1.001183	1680.579224
2092.954128	0.091626	1.001183	1762.126343
2092.955071	0.091659	1.001183	1848.560669
2093.962593	1.060045	1.099397	482.320587
2093.963498	0.587435	1.099397	1013.949585
2093.964443	0.093907	1.099397	1102.692139
2093.965341	0.091696	1.099397	1185.034790
2093.966242	0.091600	1.099397	1267.566650
2093.967127	0.091611	1.099397	1348.642700
2093.968069	0.091714	1.099397	1435.037109
2093.968970	0.091703	1.099397	1517.661377
2093.969873	0.091630	1.099397	1600.402954
2093.970761	0.091655	1.099397	1681.792847
2093.971709	0.091674	1.099397	1768.699463
2093.972612	0.091681	1.099397	1851.487305
2095.039331	1.066597	0.993811	490.634491
2095.040236	0.585531	0.993811	1020.540039
2095.041199	0.093138	0.993811	1110.232300
2095.042101	0.091564	0.993811	1192.822754
2095.043004	0.091556	0.993811	1275.498169
2095.043888	0.091589	0.993811	1356.463135
2095.044821	0.091659	0.993811	1441.980957
2095.045739	0.091509	0.993811	1525.986084
2095.046637	0.091622	0.993811	1608.262939
2095.047532	0.091677	0.993811	1690.314087
2095.048466	0.091707	0.993811	1775.968018
2095.049374	0.091582	0.993811	1859.124512
2096.057035	1.034755	1.098116	453.222534
2096.058021	0.500424	1.098116	946.640259
2096.058934	0.092758	1.098116	1031.327881
2096.059829	0.091556	1.098116	1113.270874
2096.060756	0.091586	1.098116	1198.170776
2096.061661	0.091589	1.098116	1281.059082
2096.062568	0.091615	1.098116	1364.153809
2096.063458	0.091600	1.098116	1445.678101
2096.064401	0.091685	1.098116	1532.136597
2096.065297	0.091659	1.098116	1614.262939
2096.066199	0.091571	1.098116	1696.859985
2096.067093	0.091622	1.098116	1778.770386
2097.132887	1.051992	1.000969	471.292480
2097.133788	0.604698	1.000969	1016.125793
2097.134728	0.093549	1.000969	1104.061523
2097.135643	0.091571	1.000969	1187.848999
2097.136541	0.091597	1.000969	1270.102783
2097.137459	0.091589	1.000969	1354.181763
2097.138357	0.091630	1.000969	1436.465210
2097.139255	0.091520	1.000969	1518.649902
2097.140142	0.091582	1.000969	1599.883179
2097.141090	0.091575	1.000969	1686.696045
2097.141984	0.091589	1.000969	1768.576904
2097.142887	0.091615	1.000969	1851.305176
2098.150860	1.034268	1.100150	458.180511
2098.151839	0.514493	1.100150	961.869568
2098.152749	0.092743	1.100150	1046.265625
2098.153640	0.091600	1.100150	1127.881592
2098.154580	0.091663	1.100150	1214.044434
2098.155493	0.091534	1.100150	1297.615356
2098.156393	0.091659	1.100150	1380.108398
2098.157281	0.091589	1.100150	1461.439697
2098.158219	0.091688	1.100150	1547.443237
2098.159123	0.091644	1.100150	1630.289673
2098.160012	0.091611	1.100150	1711.732178
2098.160927	0.091608	1.100150	1795.553223
2099.226702	1.036066	1.009006	455.868896
2099.227670	0.520294	1.009006	959.513672
2099.228583	0.092911	1.009006	1044.341797
2099.229483	0.091622	1.009006	1126.801880
2099.230407	0.091597	1.009006	1211.437256
2099.231319	0.091597	1.009006	1294.973389
2099.232233	0.091571	1.009006	1378.669312
2099.233123	0.091575	1.009006	1460.170776
2099.234054	0.091619	1.009006	1545.467773
2099.234960	0.091578	1.009006	1628.437744
2099.235864	0.091575	1.009006	1711.221313
2099.236753	0.091564	1.009006	1792.621460
2100.245075	1.051934	1.103357	469.162354
2100.245989	0.588875	1.103357	1007.393677
2100.246894	0.093794	1.103357	1092.277222
2100.247830	0.091586	1.103357	1178.001465
2100.248738	0.091545	1.103357	1261.124756
2100.249632	0.091575	1.103357	1342.992554
2100.250569	0.091578	1.103357	1428.801514
2100.251471	0.091586	1.103357	1511.411865
2100.252368	0.091586	1.103357	1593.564209
2100.253257	0.091567	1.103357	1674.967651
2100.254194	0.091644	1.103357	1760.838379
2100.255101	0.091622	1.103357	1843.939819
2101.320403	1.051531	1.012277	467.931183
2101.321391	0.495872	1.012277	957.852295
2101.322295	0.092791	1.012277	1041.734985
2101.323184	0.091538	1.012277	1123.112305
2101.324117	0.091699	1.012277	1208.667725
2101.325034	0.091615	1.012277	1292.678711
2101.325930	0.091597	1.012277	1374.749390
2101.326850	0.091663	1.012277	1459.078979
2101.327760	0.091630	1.012277	1542.461914
2101.328662	0.091575	1.012277	1625.062256
2101.329557	0.091633	1.012277	1707.074097
2101.330498	0.091597	1.012277	1793.266602
2102.339403	1.036670	1.095864	451.988068
2102.340350	0.560376	1.095864	982.664185
2102.341262	0.093091	1.095864	1067.562988
2102.342161	0.091615	1.095864	1149.924805
2102.343053	0.091589	1.095864	1231.622559
2102.344013	0.091648	1.095864	1319.604614
2102.344922	0.091567	1.095864	1402.839355
2102.345822	0.091553	1.095864	1485.236816
2102.346739	0.091545	1.095864	1569.183960
2102.347654	0.091600	1.095864	1652.998291
2102.348562	0.091593	1.095864	1736.164795
2102.349449	0.091604	1.095864	1817.417480
2103.414096	1.053929	1.023169	468.998596
2103.415085	0.489972	1.023169	953.580811
2103.415991	0.092622	1.023169	1037.496460
2103.416879	0.091597	1.023169	1118.834351
2103.417808	0.091641	1.023169	1203.968506
2103.418713	0.091564	1.023169	1286.833740
2103.419630	0.091571	1.023169	1370.804443
2103.420521	0.091626	1.023169	1452.443237
2103.421473	0.091659	1.023169	1539.702515
2103.422372	0.091619	1.023169	1622.067627
2103.423262	0.091582	1.023169	1703.575684
2103.424176	0.091644	1.023169	1787.338623
2104.433558	1.104653	1.107119	565.582520
2104.434476	0.485695	1.107119	1011.450134
2104.435376	0.092754	1.107119	1094.928711
2104.436267	0.091600	1.107119	1176.544678
2104.437220	0.091637	1.107119	1263.874756
2104.438130	0.091589	1.107119	1347.221069
2104.439027	0.091582	1.107119	1429.370117
2104.439951	0.091593	1.107119	1514.002075
2104.440851	0.091608	1.107119	1596.448975
2104.441760	0.091549	1.107119	1679.667114
2104.442650	0.091556	1.107119	1761.152344
2104.443575	0.091593	1.107119	1845.875854
2105.507792	1.038362	1.008438	456.879181
2105.508701	0.611320	1.008438	1012.568726
2105.509588	0.094318	1.008438	1096.228516
2105.510550	0.091622	1.008438	1184.369141
2105.511460	0.091578	1.008438	1267.705444
2105.512354	0.091549	1.008438	1349.550293
2105.513243	0.091578	1.008438	1430.963501
2105.514169	0.091560	1.008438	1515.748169
2105.515064	0.091575	1.008438	1597.707520
2105.515953	0.091597	1.008438	1679.136963
2105.516880	0.091589	1.008438	1764.040283
2105.517788	0.091626	1.008438	1847.236694
2106.528088	1.048528	1.105266	471.837524
2106.528989	0.605867	1.105266	1017.723389
2106.529927	0.093959	1.105266	1105.856689
2106.530828	0.091534	1.105266	1188.329224
2106.531726	0.091626	1.105266	1270.609375
2106.532616	0.091608	1.105266	1352.140137
2106.533546	0.091648	1.105266	1437.372681
2106.534450	0.091655	1.105266	1520.229004
2106.535352	0.091615	1.105266	1602.865723
2106.536258	0.091600	1.105266	1685.855591
2106.537186	0.091641	1.105266	1770.898071
2106.538099	0.091619	1.105266	1854.545898
2107.601375	1.051589	1.016168	479.524750
2107.602276	0.595591	1.016168	1016.151978
2107.603222	0.093494	1.016168	1104.596924
2107.604128	0.091593	1.016168	1187.580200
2107.605034	0.091556	1.016168	1270.530273
2107.605924	0.091527	1.016168	1351.989380
2107.606874	0.091545	1.016168	1438.957520
2107.607780	0.091586	1.016168	1521.934204
2107.608678	0.091571	1.016168	1604.165039
2107.609601	0.091560	1.016168	1688.674927
2107.610507	0.091604	1.016168	1771.668213
2107.611417	0.091578	1.016168	1855.004517
2108.622170	1.053962	1.101770	475.337006
2108.623068	0.602952	1.101770	1016.787598
2108.624028	0.093402	1.101770	1106.453613
2108.624935	0.091593	1.101770	1189.528442
2108.625861	0.091586	1.101770	1274.336792
2108.626747	0.091564	1.101770	1355.462280
2108.627685	0.091549	1.101770	1441.335327
2108.628580	0.091571	1.101770	1523.291382
2108.629471	0.091608	1.101770	1604.913818
2108.630397	0.091666	1.101770	1689.796753
2108.631307	0.091637	1.101770	1773.186401
2108.632210	0.091652	1.101770	1855.947754
2109.695435	1.032810	1.022770	452.370819
2109.696418	0.525582	1.022770	969.018188
2109.697314	0.092992	1.022770	1052.338989
2109.698216	0.091567	1.022770	1134.932739
2109.699104	0.091626	1.022770	1216.296631
2109.700052	0.091637	1.022770	1303.168457
2109.700959	0.091575	1.022770	1386.226685
2109.701858	0.091582	1.022770	1468.558960
2109.702781	0.091663	1.022770	1553.163574
2109.703679	0.091648	1.022770	1635.463379
2109.704571	0.091659	1.022770	1717.223145
2109.705457	0.091630	1.022770	1798.406982
2110.716761	1.055207	1.109331	471.677734
2110.717696	0.559567	1.109331	994.872559
2110.718593	0.093475	1.109331	1078.719971
2110.719526	0.091718	1.109331	1164.292480
2110.720426	0.091718	1.109331	1246.838257
2110.721328	0.091578	1.109331	1329.441895
2110.722216	0.091641	1.109331	1410.818726
2110.723167	0.091721	1.109331	1498.045532
2110.724073	0.091663	1.109331	1581.091797
2110.724962	0.091597	1.109331	1662.521240
2110.725869	0.091619	1.109331	1745.619385
2110.726792	0.091655	1.109331	1830.217163
2111.790164	1.049198	1.026803	468.991516
2111.791068	0.608848	1.026803	1019.389771
2111.791957	0.094175	1.026803	1103.111206
2111.792921	0.091593	1.026803	1191.406860
2111.793820	0.091685	1.026803	1273.831299
2111.794725	0.091696	1.026803	1356.815796
2111.795613	0.091703	1.026803	1438.247925
2111.796558	0.091593	1.026803	1524.803345
2111.797458	0.091600	1.026803	1607.243652
2111.798354	0.091582	1.026803	1689.301147
2111.799290	0.091648	1.026803	1775.083618
2111.800195	0.091626	1.026803	1858.005127
2112.810847	1.051970	1.121065	480.750336
2112.811747	0.597579	1.121065	1018.571655
2112.812696	0.093571	1.121065	1107.370117
2112.813610	0.091630	1.121065	1191.119629
2112.814508	0.091611	1.121065	1273.386597
2112.815396	0.091630	1.121065	1354.753662
2112.816344	0.091710	1.121065	1441.694946
2112.817247	0.091589	1.121065	1524.400146
2112.818143	0.091615	1.121065	1606.487183
2112.819067	0.091549	1.121065	1691.078491
2112.819969	0.091652	1.121065	1773.748291
2112.820876	0.091534	1.121065	1856.770020
2113.883877	1.063740	1.027923	489.320526
2113.884778	0.591222	1.027923	1022.011475
2113.885729	0.093790	1.027923	1111.206055
2113.886632	0.091589	1.027923	1193.911255
2113.887525	0.091589	1.027923	1275.700562
2113.888414	0.091619	1.027923	1357.149536
2113.889353	0.091707	1.027923	1443.261963
2113.890265	0.091589	1.027923	1526.791504
2113.891172	0.091674	1.027923	1609.939453
2113.892061	0.091600	1.027923	1691.372192
2113.893020	0.091637	1.027923	1779.252075
2113.893925	0.091509	1.027923	1862.067505
2114.904037	1.066538	1.118753	493.807129
2114.904935	0.589933	1.118753	1023.566833
2114.905873	0.093226	1.118753	1111.013184
2114.906780	0.091586	1.118753	1194.081421
2114.907683	0.091630	1.118753	1276.822998
2114.908567	0.091465	1.118753	1357.677979
2114.909525	0.091633	1.118753	1445.462646
2114.910429	0.091571	1.118753	1528.242920
2114.911326	0.091560	1.118753	1610.372314
2114.912264	0.091659	1.118753	1696.348389
2114.913169	0.091534	1.118753	1779.187012
2114.914064	0.091586	1.118753	1861.156250
2115.978440	1.034407	1.027653	454.104584
2115.979335	0.617545	1.027653	1006.807495
2115.980320	0.092882	1.027653	1098.296387
2115.981223	0.091538	1.027653	1180.955322
2115.982116	0.091666	1.027653	1262.813232
2115.983038	0.091655	1.027653	1347.319336
2115.983959	0.091597	1.027653	1431.679932
2115.984871	0.091608	1.027653	1515.226074
2115.985756	0.091622	1.027653	1596.311768
2115.986713	0.091553	1.027653	1683.927734
2115.987606	0.091622	1.027653	1765.746460
2115.988498	0.091611	1.027653	1847.463745
2116.997842	1.042441	1.136208	462.843964
2116.998785	0.578837	1.136208	1008.687012
2116.999695	0.093190	1.136208	1093.489624
2117.000596	0.091556	1.136208	1175.981934
2117.001486	0.091560	1.136208	1257.470337
2117.002434	0.091670	1.136208	1344.373413
2117.003329	0.091586	1.136208	1426.342651
2117.004231	0.091512	1.136208	1508.886841
2117.005117	0.091582	1.136208	1590.028564
2117.006063	0.091600	1.136208	1676.682495
2117.006971	0.091509	1.136208	1759.772461
2117.007861	0.091534	1.136208	1841.238159
2118.072323	1.101288	1.031073	540.732300
2118.073243	0.513658	1.031073	1013.298096
2118.074145	0.092889	1.031073	1097.084351
2118.075030	0.091582	1.031073	1178.134399
2118.075973	0.091677	1.031073	1264.586060
2118.076881	0.091589	1.031073	1347.749146
2118.077773	0.091604	1.031073	1429.459961
2118.078715	0.091670	1.031073	1515.812988
2118.079608	0.091531	1.031073	1597.549927
2118.080511	0.091520	1.031073	1680.192261
2118.081399	0.091600	1.031073	1761.533325
2118.082328	0.091707	1.031073	1846.728760
2119.091277	1.034443	1.139161	453.086212
2119.092230	0.552488	1.139161	979.607056
2119.093140	0.093289	1.139161	1064.499634
2119.094041	0.091633	1.139161	1147.061279
2119.094927	0.091597	1.139161	1228.215942
2119.095877	0.091597	1.139161	1315.232788
2119.096779	0.091564	1.139161	1397.823242
2119.097678	0.091659	1.139161	1480.224609
2119.098612	0.091685	1.139161	1565.858032
2119.099518	0.091622	1.139161	1648.867798
2119.100425	0.091560	1.139161	1731.912720
2119.101314	0.091586	1.139161	1813.332397
2120.166769	1.069643	1.018380	502.732452
2120.167672	0.565818	1.018380	1013.665955
2120.168568	0.093530	1.018380	1097.469116
2120.169526	0.091556	1.018380	1185.180176
2120.170444	0.091494	1.018380	1269.171753
2120.171377	0.091476	1.018380	1354.518677
2120.172268	0.091564	1.018380	1436.101929
2120.173232	0.091534	1.018380	1524.341064
2120.174131	0.091578	1.018380	1606.670044
2120.175021	0.091542	1.018380	1688.142212
2120.175962	0.091597	1.018380	1774.334717
2120.176866	0.091560	1.018380	1857.104980
2121.184463	1.037706	1.123926	454.515350
2121.185421	0.580411	1.123926	1010.549438
2121.186335	0.093175	1.123926	1095.711426
2121.187233	0.091575	1.123926	1177.945557
2121.188121	0.091597	1.123926	1259.283447
2121.189066	0.091626	1.123926	1345.869995
2121.189979	0.091549	1.123926	1429.454346
2121.190880	0.091567	1.123926	1511.956543
2121.191766	0.091564	1.123926	1593.082031
2121.192712	0.091637	1.123926	1679.770630
2121.193613	0.091567	1.123926	1762.272827
2121.194503	0.091593	1.123926	1843.790649
2122.259821	1.061763	1.027000	490.534363
2122.260741	0.555747	1.027000	1001.821655
2122.261633	0.093468	1.027000	1085.195068
2122.262575	0.091615	1.027000	1171.496338
2122.263488	0.091597	1.027000	1255.124146
2122.264381	0.091578	1.027000	1336.903687
2122.265302	0.091589	1.027000	1421.257446
2122.266206	0.091615	1.027000	1504.077393
2122.267115	0.091582	1.027000	1587.325439
2122.268005	0.091604	1.027000	1668.853027
2122.268950	0.091732	1.027000	1755.539917
2122.269854	0.091637	1.027000	1838.379761
2123.279068	1.055588	1.141747	470.792419
2123.279982	0.589783	1.141747	1009.853821
2123.280872	0.093889	1.141747	1093.415161
2123.281824	0.091655	1.141747	1180.671021
2123.282728	0.091688	1.141747	1263.557129
2123.283637	0.091593	1.141747	1346.815186
2123.284558	0.091619	1.141747	1431.195923
2123.285451	0.091648	1.141747	1513.037598
2123.286395	0.091663	1.141747	1599.567139
2123.287296	0.091604	1.141747	1682.102295
2123.288182	0.091593	1.141747	1763.253662
2123.289127	0.091589	1.141747	1849.805664
2124.355177	1.064773	1.045571	489.795563
2124.356105	0.562712	1.045571	1011.992676
2124.356992	0.093534	1.045571	1094.957275
2124.357928	0.091564	1.045571	1180.660889
2124.358828	0.091575	1.045571	1263.078125
2124.359739	0.091652	1.045571	1346.572754
2124.360638	0.091578	1.045571	1428.901733
2124.361555	0.091597	1.045571	1512.895874
2124.362460	0.091666	1.045571	1595.853882
2124.363363	0.091659	1.045571	1678.621948
2124.364248	0.091644	1.045571	1759.727173
2124.365192	0.091630	1.045571	1846.225586
2125.372378	1.052029	1.136043	475.516998
2125.373290	0.592610	1.136043	1015.977173
2125.374177	0.093904	1.136043	1099.269897
2125.375120	0.091545	1.136043	1185.597168
2125.376037	0.091509	1.136043	1269.510742
2125.376936	0.091589	1.136043	1351.849609
2125.377867	0.091655	1.136043	1437.180664
2125.378774	0.091648	1.136043	1520.305298
2125.379678	0.091553	1.136043	1603.068970
2125.380571	0.091615	1.136043	1684.881104
2125.381515	0.091644	1.136043	1771.393311
2125.382417	0.091597	1.136043	1854.013550
2126.448858	1.048905	1.037462	464.664917
2126.449768	0.603735	1.037462	1014.064087
2126.450656	0.094102	1.037462	1097.626221
2126.451607	0.091644	1.037462	1184.779907
2126.452511	0.091564	1.037462	1267.553467
2126.453409	0.091575	1.037462	1349.787598
2126.454324	0.091571	1.037462	1433.575073
2126.455234	0.091707	1.037462	1517.028076
2126.456146	0.091633	1.037462	1600.597656
2126.457037	0.091604	1.037462	1682.216797
2126.457964	0.091608	1.037462	1767.137085
2126.458864	0.091641	1.037462	1849.613647
2127.466825	1.030909	1.136667	448.445587
2127.467766	0.590347	1.136667	1003.961792
2127.468670	0.093490	1.136667	1088.476807
2127.469574	0.091512	1.136667	1171.204102
2127.470501	0.091641	1.136667	1256.154907
2127.471395	0.091600	1.136667	1338.045654
2127.472329	0.091619	1.136667	1423.617432
2127.473238	0.091597	1.136667	1506.878784
2127.474158	0.091622	1.136667	1591.171265
2127.475051	0.091677	1.136667	1673.039062
2127.475994	0.091589	1.136667	1759.407837
2127.476894	0.091593	1.136667	1841.841553
2128.542560	1.060891	1.047581	484.827271
2128.543471	0.579950	1.047581	1013.161621
2128.544358	0.093853	1.047581	1096.408813
2128.545312	0.091538	1.047581	1183.736084
2128.546228	0.091637	1.047581	1267.675537
2128.547155	0.091600	1.047581	1352.589111
2128.548045	0.091589	1.047581	1434.103638
2128.548985	0.091619	1.047581	1520.225220
2128.549887	0.091604	1.047581	1602.852051
2128.550776	0.091586	1.047581	1684.271729
2128.551703	0.091736	1.047581	1769.310791
2128.552630	0.091575	1.047581	1854.200562
2129.560903	1.032228	1.151419	449.019135
2129.561891	0.524345	1.151419	967.071533
2129.562809	0.092692	1.151419	1052.162476
2129.563701	0.091597	1.151419	1133.866699
2129.564640	0.091575	1.151419	1219.855347
2129.565542	0.091593	1.151419	1302.472290
2129.566434	0.091571	1.151419	1384.153687
2129.567321	0.091608	1.151419	1465.409668
2129.568255	0.091604	1.151419	1550.967773
2129.569174	0.091512	1.151419	1635.067749
2129.570076	0.091501	1.151419	1717.602051
2129.570967	0.091553	1.151419	1799.175537
2130.636369	1.035432	1.033703	455.590179
2130.637309	0.601505	1.033703	1021.005005
2130.638220	0.093435	1.033703	1106.124390
2130.639134	0.091556	1.033703	1189.806885
2130.640027	0.091567	1.033703	1271.576538
2130.640964	0.091670	1.033703	1357.471191
2130.641870	0.091615	1.033703	1440.474365
2130.642770	0.091604	1.033703	1522.917969
2130.643662	0.091571	1.033703	1604.599365
2130.644623	0.091666	1.033703	1692.690674
2130.645524	0.091586	1.033703	1775.209351
2130.646418	0.091630	1.033703	1857.126221
2131.654680	1.119661	1.146843	578.864624
2131.655606	0.479810	1.146843	1023.168335
2131.656506	0.092699	1.146843	1106.597412
2131.657391	0.091567	1.146843	1187.634521
2131.658323	0.091582	1.146843	1272.989014
2131.659228	0.091626	1.146843	1355.910522
2131.660117	0.091545	1.146843	1437.294434
2131.661048	0.091589	1.146843	1522.564087
2131.661958	0.091567	1.146843	1605.890381
2131.662857	0.091586	1.146843	1688.225952
2131.663756	0.091604	1.146843	1770.578003
2131.664687	0.091692	1.146843	1855.943115
2132.730845	1.054922	1.053378	471.550079
2132.731770	0.572450	1.053378	1001.066284
2132.732670	0.093560	1.053378	1085.269897
2132.733556	0.091578	1.053378	1166.408325
2132.734498	0.091637	1.053378	1252.730347
2132.735396	0.091637	1.053378	1335.020386
2132.736291	0.091575	1.053378	1416.979736
2132.737222	0.091655	1.053378	1502.310791
2132.738131	0.091652	1.053378	1585.622070
2132.739024	0.091575	1.053378	1667.398315
2132.739914	0.091608	1.053378	1748.929199
2132.740843	0.091677	1.053378	1834.097412
2133.749337	1.050403	1.148869	470.580444
2133.750239	0.604102	1.148869	1015.480103
2133.751180	0.093329	1.148869	1103.302612
2133.752095	0.091542	1.148869	1187.063354
2133.752995	0.091652	1.148869	1269.549805
2133.753881	0.091589	1.148869	1350.697998
2133.754821	0.091622	1.148869	1436.822998
2133.755721	0.091567	1.148869	1519.233643
2133.756610	0.091582	1.148869	1600.650024
2133.757555	0.091564	1.148869	1687.177734
2133.758459	0.091549	1.148869	1769.938110
2133.759361	0.091659	1.148869	1852.614502
2134.824546	1.059719	1.054368	477.933350
2134.825449	0.601088	1.054368	1020.715454
2134.826339	0.094146	1.054368	1104.505005
2134.827303	0.091567	1.054368	1192.776001
2134.828205	0.091578	1.054368	1275.379639
2134.829101	0.091611	1.054368	1357.463379
2134.829991	0.091567	1.054368	1438.958374
2134.830941	0.091560	1.054368	1525.940430
2134.831856	0.091520	1.054368	1609.681030
2134.832752	0.091564	1.054368	1691.722168
2134.833686	0.091637	1.054368	1777.311035
2134.834588	0.091575	1.054368	1859.911377
2135.843276	1.053025	1.157683	465.437012
2135.844273	0.478546	1.157683	942.547485
2135.845182	0.092563	1.157683	1026.687744
2135.846082	0.091553	1.157683	1109.085205
2135.847016	0.091659	1.157683	1194.694702
2135.847912	0.091622	1.157683	1276.788330
2135.848809	0.091666	1.157683	1359.012939
2135.849698	0.091633	1.157683	1440.474976
2135.850644	0.091633	1.157683	1527.160034
2135.851546	0.091545	1.157683	1609.734009
2135.852441	0.091597	1.157683	1691.713013
2135.853350	0.091652	1.157683	1775.024292
2136.918617	1.043870	1.047146	466.609711
2136.919513	0.610060	1.047146	1013.223267
2136.920483	0.093087	1.047146	1103.517822
2136.921380	0.091549	1.047146	1185.637329
2136.922279	0.091556	1.047146	1267.946533
2136.923170	0.091575	1.047146	1349.539551
2136.924120	0.091626	1.047146	1436.584229
2136.925032	0.091531	1.047146	1520.060303
2136.925934	0.091490	1.047146	1602.584717
2136.926866	0.091622	1.047146	1687.976685
2136.927774	0.091600	1.047146	1771.149780
2136.928675	0.091534	1.047146	1853.622314
2137.937756	1.048674	1.151842	475.049438
2137.938666	0.591877	1.151842	1013.657898
2137.939553	0.093915	1.151842	1096.960327
2137.940494	0.091630	1.151842	1183.183838
2137.941403	0.091567	1.151842	1266.418579
2137.942303	0.091564	1.151842	1348.825928
2137.943234	0.091608	1.151842	1434.112671
2137.944147	0.091637	1.151842	1517.777222
2137.945050	0.091542	1.151842	1600.439453
2137.945939	0.091604	1.151842	1681.875366
2137.946876	0.091542	1.151842	1767.650024
2137.947775	0.091578	1.151842	1849.979004
2139.012432	1.040270	1.064669	460.839478
2139.013424	0.517819	1.064669	974.515564
2139.014317	0.092791	1.064669	1057.377563
2139.015224	0.091578	1.064669	1140.439209
2139.016112	0.091641	1.064669	1221.816040
2139.017059	0.091721	1.064669	1308.676025
2139.017970	0.091582	1.064669	1392.107300
2139.018863	0.091560	1.064669	1473.870483
2139.019779	0.091582	1.064669	1557.759644
2139.020685	0.091637	1.064669	1640.782715
2139.021596	0.091545	1.064669	1724.180542
2139.022488	0.091615	1.064669	1805.901123
2140.032074	1.031572	1.152313	449.765503
2140.033027	0.600223	1.152313	1021.778381
2140.033944	0.093230	1.152313	1107.270264
2140.034862	0.091578	1.152313	1191.339233
2140.035754	0.091553	1.152313	1273.004272
2140.036681	0.091542	1.152313	1357.863525
2140.037587	0.091597	1.152313	1440.850098
2140.038492	0.091644	1.152313	1523.788208
2140.039378	0.091560	1.152313	1604.910400
2140.040330	0.091710	1.152313	1692.218506
2140.041237	0.091527	1.152313	1775.233643
2140.042136	0.091582	1.152313	1857.565918
2141.106134	1.041914	1.061793	469.903198
2141.107098	0.509231	1.061793	960.801758
2141.108009	0.092710	1.061793	1045.260498
2141.108910	0.091501	1.061793	1127.703369
2141.109841	0.091597	1.061793	1212.979858
2141.110739	0.091604	1.061793	1295.240234
2141.111636	0.091509	1.061793	1377.323608
2141.112527	0.091509	1.061793	1458.857910
2141.113467	0.091582	1.061793	1544.945068
2141.114365	0.091498	1.061793	1627.110107
2141.115262	0.091604	1.061793	1709.278931
2141.116165	0.091549	1.061793	1791.947754
2142.126569	1.070783	1.147596	495.772308
2142.127493	0.549844	1.147596	1003.827881
2142.128400	0.093157	1.147596	1088.321045
2142.129287	0.091578	1.147596	1169.551025
2142.130241	0.091611	1.147596	1256.948242
2142.131148	0.091509	1.147596	1339.946777
2142.132040	0.091527	1.147596	1421.588989
2142.132983	0.091516	1.147596	1507.888672
2142.133884	0.091564	1.147596	1590.387573
2142.134777	0.091501	1.147596	1672.098389
2142.135670	0.091520	1.147596	1753.825562
2142.136604	0.091608	1.147596	1839.387085
2143.199955	1.049176	1.058429	467.932495
2143.200884	0.577903	1.058429	1004.804260
2143.201783	0.093556	1.058429	1088.911011
2143.202714	0.091589	1.058429	1174.180664
2143.203617	0.091582	1.058429	1256.879272
2143.204524	0.091655	1.058429	1340.010620
2143.205413	0.091575	1.058429	1421.420532
2143.206328	0.091560	1.058429	1505.197998
2143.207232	0.091604	1.058429	1588.008057
2143.208130	0.091545	1.058429	1670.215820
2143.209022	0.091542	1.058429	1751.871094
2143.209973	0.091560	1.058429	1838.944702
2144.220371	1.046774	1.157441	463.720734
2144.221278	0.609858	1.157441	1016.862305
2144.222163	0.094241	1.157441	1100.265381
2144.223129	0.091659	1.157441	1188.807861
2144.224039	0.091483	1.157441	1272.057495
2144.224930	0.091575	1.157441	1353.650513
2144.225831	0.091523	1.157441	1436.113159
2144.226759	0.091648	1.157441	1521.162476
2144.227662	0.091509	1.157441	1603.794922
2144.228558	0.091615	1.157441	1685.881958
2144.229490	0.091666	1.157441	1771.314941
2144.230394	0.091560	1.157441	1854.085205
2145.293671	1.067706	1.063710	490.077209
2145.294576	0.584824	1.063710	1019.343140
2145.295463	0.093911	1.063710	1102.642334
2145.296411	0.091611	1.063710	1189.489868
2145.297312	0.091534	1.063710	1271.962402
2145.298212	0.091615	1.063710	1354.415894
2145.299136	0.091608	1.063710	1439.061401
2145.300052	0.091663	1.063710	1523.024292
2145.300958	0.091567	1.063710	1605.984375
2145.301853	0.091586	1.063710	1687.953613
2145.302788	0.091604	1.063710	1773.603394
2145.303694	0.091633	1.063710	1856.623169
2146.315083	1.030774	1.163629	447.355865
2146.316058	0.537748	1.163629	971.659912
2146.316963	0.093094	1.163629	1055.910400
2146.317863	0.091523	1.163629	1138.281494
2146.318754	0.091597	1.163629	1219.894165
2146.319686	0.091732	1.163629	1305.388550
2146.320578	0.091567	1.163629	1387.066650
2146.321478	0.091604	1.163629	1469.510254
2146.322403	0.091597	1.163629	1554.237183
2146.323317	0.091622	1.163629	1637.979980
2146.324224	0.091644	1.163629	1721.101318
2146.325124	0.091600	1.163629	1803.541626
2147.387224	1.053219	1.060036	473.948547
2147.388123	0.606610	1.060036	1019.291016
2147.389062	0.094047	1.060036	1107.600830
2147.389973	0.091626	1.060036	1191.072144
2147.390883	0.091553	1.060036	1274.385132
2147.391773	0.091571	1.060036	1355.883301
2147.392728	0.091685	1.060036	1443.442017
2147.393628	0.091553	1.060036	1525.839478
2147.394524	0.091575	1.060036	1607.890381
2147.395410	0.091578	1.060036	1689.028809
2147.396344	0.091666	1.060036	1774.645142
2147.397252	0.091611	1.060036	1857.828247
2148.408015	1.045561	1.144752	464.229279
2148.408970	0.579968	1.144752	1018.098999
2148.409882	0.093223	1.144752	1103.118042
2148.410780	0.091494	1.144752	1185.279785
2148.411669	0.091604	1.144752	1266.715698
2148.412602	0.091648	1.144752	1352.223267
2148.413507	0.091604	1.144752	1435.124878
2148.414412	0.091582	1.144752	1518.006592
2148.415303	0.091523	1.144752	1599.553955
2148.416245	0.091663	1.144752	1685.900146
2148.417150	0.091626	1.144752	1768.821655
2148.418043	0.091604	1.144752	1850.624023
2149.481931	1.047239	1.067001	460.785034
2149.482916	0.495575	1.067001	948.926392
2149.483820	0.092750	1.067001	1032.772583
2149.484716	0.091531	1.067001	1114.784180
2149.485658	0.091681	1.067001	1201.147583
2149.486554	0.091644	1.067001	1283.260864
2149.487453	0.091578	1.067001	1365.589844
2149.488340	0.091545	1.067001	1446.790649
2149.489289	0.091619	1.067001	1533.736694
2149.490202	0.091560	1.067001	1617.331055
2149.491105	0.091564	1.067001	1700.013062
2149.492027	0.091641	1.067001	1784.505737
2150.502142	1.068560	1.146891	523.594177
2150.503065	0.518968	1.146891	1002.602051
2150.503968	0.092966	1.146891	1086.550659
2150.504860	0.091490	1.146891	1168.160156
2150.505814	0.091575	1.146891	1255.522461
2150.506716	0.091641	1.146891	1338.182251
2150.507611	0.091589	1.146891	1420.154785
2150.508523	0.091604	1.146891	1503.697632
2150.509457	0.091622	1.146891	1589.272827
2150.510364	0.091564	1.146891	1672.321167
2150.511258	0.091600	1.146891	1754.211914
2150.512189	0.091674	1.146891	1839.560059
2151.575564	1.106418	1.061640	557.634949
2151.576476	0.509139	1.061640	1021.970093
2151.577375	0.092974	1.061640	1105.553345
2151.578261	0.091553	1.061640	1186.669067
2151.579207	0.091637	1.061640	1273.357666
2151.580118	0.091545	1.061640	1356.755493
2151.581017	0.091534	1.061640	1439.044922
2151.581944	0.091578	1.061640	1523.938110
2151.582849	0.091633	1.061640	1606.866211
2151.583750	0.091556	1.061640	1689.358521
2151.584637	0.091615	1.061640	1770.620972
2151.585579	0.091626	1.061640	1856.932617
2152.595947	1.068245	1.159657	492.460754
2152.596882	0.544592	1.159657	1001.654541
2152.597778	0.093237	1.159657	1085.195190
2152.598667	0.091556	1.159657	1166.588867
2152.599616	0.091531	1.159657	1253.451538
2152.600518	0.091582	1.159657	1336.058594
2152.601410	0.091604	1.159657	1417.769409
2152.602365	0.091567	1.159657	1505.216309
2152.603271	0.091600	1.159657	1588.206177
2152.604169	0.091615	1.159657	1670.476440
2152.605103	0.091626	1.159657	1756.055054
2152.606009	0.091556	1.159657	1839.005127
2153.669072	1.041343	1.068194	462.356171
2153.670001	0.585399	1.068194	1006.192017
2153.670905	0.093607	1.068194	1090.812866
2153.671850	0.091549	1.068194	1177.326782
2153.672753	0.091615	1.068194	1260.055176
2153.673655	0.091520	1.068194	1342.605957
2153.674541	0.091578	1.068194	1423.744385
2153.675477	0.091703	1.068194	1509.578247
2153.676381	0.091600	1.068194	1592.385010
2153.677285	0.091589	1.068194	1675.181763
2153.678180	0.091600	1.068194	1757.164062
2153.679130	0.091692	1.068194	1844.271362
2154.690514	1.047111	1.166090	467.011322
2154.691413	0.595397	1.166090	1002.272949
2154.692404	0.092662	1.166090	1094.101318
2154.693312	0.091556	1.166090	1177.234497
2154.694210	0.091575	1.166090	1259.468628
2154.695144	0.091630	1.166090	1345.050659
2154.696046	0.091586	1.166090	1427.661011
2154.696940	0.091556	1.166090	1509.512451
2154.697830	0.091600	1.166090	1591.036743
2154.698763	0.091688	1.166090	1676.581909
2154.699676	0.091586	1.166090	1760.199707
2154.700571	0.091622	1.166090	1842.201660
2155.763164	1.055563	1.075674	476.058807
2155.764074	0.588256	1.075674	1011.371460
2155.764964	0.093896	1.075674	1094.939331
2155.765926	0.091542	1.075674	1183.002441
2155.766838	0.091608	1.075674	1266.548584
2155.767762	0.091589	1.075674	1351.177124
2155.768650	0.091582	1.075674	1432.501953
2155.769588	0.091655	1.075674	1518.474609
2155.770485	0.091498	1.075674	1600.548096
2155.771376	0.091589	1.075674	1682.154175
2155.772299	0.091633	1.075674	1766.731689
2155.773216	0.091578	1.075674	1850.709106
2156.784335	1.044836	1.171484	465.997040
2156.785230	0.607892	1.171484	1010.060303
2156.786197	0.093105	1.171484	1100.093262
2156.787095	0.091534	1.171484	1182.291138
2156.787986	0.091615	1.171484	1263.920044
2156.788915	0.091619	1.171484	1349.033813
2156.789838	0.091549	1.171484	1433.533569
2156.790750	0.091564	1.171484	1517.039673
2156.791643	0.091571	1.171484	1598.812622
2156.792601	0.091553	1.171484	1686.520142
2156.793507	0.091549	1.171484	1769.463623
2156.794396	0.091600	1.171484	1850.896362
2157.857744	1.051692	1.084843	466.951202
2157.858709	0.519368	1.084843	968.140991
2157.859627	0.092813	1.084843	1053.342896
2157.860529	0.091487	1.084843	1135.864014
2157.861420	0.091560	1.084843	1217.443970
2157.862344	0.091505	1.084843	1301.994751
2157.863258	0.091501	1.084843	1385.627075
2157.864176	0.091549	1.084843	1469.669067
2157.865066	0.091490	1.084843	1551.095581
2157.866004	0.091553	1.084843	1636.972046
2157.866901	0.091483	1.084843	1719.032471
2157.867788	0.091604	1.084843	1800.285156
2158.877963	1.083805	1.168181	549.489136
2158.878895	0.475891	1.168181	993.019653
2158.879797	0.092571	1.168181	1076.518555
2158.880689	0.091586	1.168181	1158.213013
2158.881642	0.091597	1.168181	1245.504639
2158.882538	0.091567	1.168181	1327.549072
2158.883444	0.091615	1.168181	1410.552246
2158.884349	0.091571	1.168181	1493.424072
2158.885268	0.091586	1.168181	1577.591309
2158.886172	0.091538	1.168181	1660.341797
2158.887061	0.091560	1.168181	1741.738647
2158.887980	0.091578	1.168181	1825.899170
2159.952093	1.053988	1.084670	475.348633
2159.952997	0.600337	1.084670	1018.053223
2159.953882	0.094219	1.084670	1101.436768
2159.954859	0.091553	1.084670	1190.883789
2159.955752	0.091586	1.084670	1272.669800
2159.956659	0.091556	1.084670	1355.711426
2159.957550	0.091619	1.084670	1437.343628
2159.958497	0.091582	1.084670	1524.071777
2159.959403	0.091542	1.084670	1607.008545
2159.960301	0.091615	1.084670	1689.278809
2159.961228	0.091619	1.084670	1774.209351
2159.962129	0.091611	1.084670	1856.751221
2160.972507	1.051754	1.174558	472.237640
2160.973410	0.599799	1.174558	1013.855713
2160.974367	0.093988	1.174558	1103.802246
2160.975263	0.091564	1.174558	1185.843384
2160.976152	0.091527	1.174558	1267.210937
2160.977040	0.091611	1.174558	1348.561768
2160.977992	0.091608	1.174558	1435.772217
2160.978894	0.091648	1.174558	1518.438721
2160.979804	0.091578	1.174558	1601.775024
2160.980692	0.091648	1.174558	1683.158447
2160.981644	0.091597	1.174558	1770.358521
2160.982550	0.091560	1.174558	1853.311890
2162.046171	1.046993	1.085838	468.006042
2162.047067	0.610796	1.085838	1015.279175
2162.048025	0.093248	1.085838	1104.611084
2162.048936	0.091542	1.085838	1188.005615
2162.049826	0.091608	1.085838	1269.536377
2162.050739	0.091560	1.085838	1353.130737
2162.051655	0.091699	1.085838	1437.127197
2162.052561	0.091578	1.085838	1520.097168
2162.053457	0.091582	1.085838	1602.154663
2162.054386	0.091556	1.085838	1687.210571
2162.055285	0.091732	1.085838	1769.677856
2162.056182	0.091545	1.085838	1851.794067
2163.066339	1.059229	1.164342	486.185913
2163.067237	0.592976	1.164342	1018.678406
2163.068190	0.093164	1.164342	1107.463745
2163.069110	0.091505	1.164342	1191.648437
2163.070011	0.091637	1.164342	1274.213379
2163.070902	0.091560	1.164342	1355.793335
2163.071859	0.091619	1.164342	1443.472412
2163.072762	0.091567	1.164342	1526.157715
2163.073650	0.091600	1.164342	1607.498779
2163.074579	0.091597	1.164342	1692.592041
2163.075485	0.091575	1.164342	1775.558716
2163.076374	0.091586	1.164342	1856.978394
2164.139991	1.048158	1.081423	470.622925
2164.140887	0.610789	1.081423	1017.889526
2164.141841	0.093274	1.081423	1106.872803
2164.142748	0.091578	1.081423	1189.934326
2164.143639	0.091531	1.081423	1271.488281
2164.144563	0.091652	1.081423	1356.174316
2164.145475	0.091611	1.081423	1439.723877
2164.146376	0.091600	1.081423	1522.255737
2164.147265	0.091505	1.081423	1603.603760
2164.148207	0.091619	1.081423	1689.908569
2164.149117	0.091538	1.081423	1773.208252
2164.150015	0.091593	1.081423	1855.458740
2165.159883	1.037278	1.169494	454.327698
2165.160858	0.526260	1.169494	967.430969
2165.161765	0.092856	1.169494	1051.651733
2165.162669	0.091531	1.169494	1134.395508
2165.163554	0.091564	1.169494	1215.429443
2165.164502	0.091582	1.169494	1302.249268
2165.165408	0.091578	1.169494	1385.219238
2165.166297	0.091567	1.169494	1466.622681
2165.167234	0.091648	1.169494	1552.496826
2165.168136	0.091589	1.169494	1635.110474
2165.169041	0.091586	1.169494	1717.995483
2165.169936	0.091567	1.169494	1799.948242
2166.233859	1.067252	1.076939	526.155334
2166.234788	0.499398	1.076939	990.096191
2166.235692	0.092820	1.076939	1074.005371
2166.236579	0.091615	1.076939	1155.267822
2166.237529	0.091674	1.076939	1242.357666
2166.238432	0.091626	1.076939	1325.095947
2166.239339	0.091630	1.076939	1408.203979
2166.240228	0.091611	1.076939	1489.646484
2166.241171	0.091637	1.076939	1576.060181
2166.242081	0.091611	1.076939	1659.426514
2166.242975	0.091556	1.076939	1741.277954
2166.243888	0.091520	1.076939	1824.835449
2167.253216	1.054567	1.178819	484.046082
2167.254118	0.587904	1.178819	1014.335571
2167.255058	0.093695	1.178819	1102.408936
2167.255971	0.091520	1.178819	1185.966553
2167.256862	0.091564	1.178819	1267.549805
2167.257778	0.091567	1.178819	1351.425537
2167.258699	0.091549	1.178819	1435.742187
2167.259592	0.091578	1.178819	1517.521729
2167.260483	0.091542	1.178819	1599.085449
2167.261417	0.091560	1.178819	1684.602539
2167.262317	0.091531	1.178819	1766.980225
2167.263230	0.091527	1.178819	1850.544434
2168.328422	1.062649	1.096320	486.693207
2168.329325	0.589329	1.096320	1018.856934
2168.330213	0.093871	1.096320	1102.214233
2168.331179	0.091538	1.096320	1190.640015
2168.332077	0.091578	1.096320	1272.877441
2168.332963	0.091534	1.096320	1353.976929
2168.333922	0.091622	1.096320	1441.842773
2168.334823	0.091652	1.096320	1524.420898
2168.335727	0.091582	1.096320	1607.211060
2168.336616	0.091564	1.096320	1688.611206
2168.337559	0.091681	1.096320	1775.066284
2168.338468	0.091571	1.096320	1858.304321
2169.348317	1.055204	1.185200	476.952179
2169.349227	0.585520	1.185200	1009.775391
2169.350174	0.093816	1.185200	1098.619019
2169.351081	0.091670	1.185200	1181.763672
2169.351982	0.091553	1.185200	1264.252686
2169.352871	0.091608	1.185200	1345.691895
2169.353815	0.091586	1.185200	1432.148804
2169.354718	0.091597	1.185200	1514.860596
2169.355618	0.091553	1.185200	1597.258057
2169.356503	0.091619	1.185200	1678.340576
2169.357437	0.091685	1.185200	1763.973999
2169.358348	0.091564	1.185200	1847.388550
2170.421215	1.055138	1.089101	477.977448
2170.422130	0.585044	1.089101	1013.292603
2170.423018	0.093805	1.089101	1096.591431
2170.423958	0.091560	1.089101	1182.657837
2170.424868	0.091619	1.089101	1266.030762
2170.425764	0.091582	1.089101	1348.088257
2170.426699	0.091589	1.089101	1433.724365
2170.427605	0.091633	1.089101	1516.744141
2170.428506	0.091589	1.089101	1599.266113
2170.429394	0.091531	1.089101	1680.545410
2170.430355	0.091593	1.089101	1768.566284
2170.431257	0.091556	1.089101	1851.150146
